timestamp,ref_timestamp,ref_lat,ref_lon,x,y,z,delta_xy[0],delta_xy[1],delta_z,vx,vy,vz,z_deriv,delta_vxy[0],delta_vxy[1],delta_vz,ax,ay,az,heading,delta_heading,ref_alt,dist_bottom,eph,epv,evh,evv,vxy_max,vz_max,hagl_min,hagl_max,xy_valid,z_valid,v_xy_valid,v_z_valid,xy_reset_counter,z_reset_counter,vxy_reset_counter,vz_reset_counter,heading_reset_counter,xy_global,z_global,dist_bottom_valid
258153837,15154129,-33.9385715,18.8741563,-1.7355323,0.83154464,-0.41231132,-0.23954648,0.1367903,0.0,0.05765646,-0.01914235,0.041875597,0.09906791,-1.5294534,0.020032808,-0.32580173,-0.0056933844,0.0026079374,-0.115454376,-2.7032824,0.0010599645,131.77486,0.10737994,0.2979586,0.43487373,0.13761266,0.09074225,inf,inf,inf,inf,1,1,1,1,2,0,2,1,4,1,1,1
258163841,15154129,-33.9385715,18.8741563,-1.7349956,0.83128065,-0.41123006,-0.23954648,0.1367903,0.0,0.060026303,-0.022012128,0.041769154,0.098984115,-1.5294534,0.020032808,-0.32580173,0.3282543,-0.4306777,0.04879422,-2.702862,0.0010599645,131.77486,0.106523216,0.29884282,0.43543386,0.13806506,0.090864964,inf,inf,inf,inf,1,1,1,1,2,0,2,1,4,1,1,1
258173846,15154129,-33.9385715,18.8741563,-1.7344278,0.83098054,-0.41017106,-0.23954648,0.1367903,0.0,0.06305088,-0.025435647,0.0417092,0.098922886,-1.5294534,0.020032808,-0.32580173,0.24614568,-0.2202416,-0.047379036,-2.7024813,0.0010599645,131.77486,0.105700195,0.2997322,0.43599543,0.13851528,0.09098769,inf,inf,inf,inf,1,1,1,1,2,0,2,1,4,1,1,1
258183850,15154129,-33.9385715,18.8741563,-1.7338362,0.83066046,-0.40913832,-0.23954648,0.1367903,0.0,0.06523022,-0.027432514,0.041265093,0.09845465,-1.5294534,0.020032808,-0.32580173,0.25722516,-0.2880996,-0.06533134,-2.70181,0.0010599645,131.77486,0.104923666,0.30062687,0.4365584,0.13896245,0.09111053,inf,inf,inf,inf,1,1,1,1,2,0,2,1,4,1,1,1
258193855,15154129,-33.9385715,18.8741563,-1.7332146,0.83030456,-0.40813407,-0.23954648,0.1367903,0.0,0.06882052,-0.03271959,0.04049594,0.097639516,-1.5294534,0.020032808,-0.32580173,0.36186823,-0.56999093,-0.092420496,-2.7008305,0.0010599645,131.77486,0.1041995,0.30152673,0.43712282,0.13941064,0.09123351,inf,inf,inf,inf,1,1,1,1,2,0,2,1,4,1,1,1
258203892,15154129,-33.9385715,18.8741563,-1.7325612,0.8299108,-0.40716127,-0.23954648,0.1367903,0.0,0.07099599,-0.03455829,0.038905043,0.09598213,-1.5294534,0.020032808,-0.32580173,0.20400043,-0.10910216,-0.1876949,-2.6997714,0.0010599645,131.77486,0.10353932,0.3024318,0.43768865,0.13985905,0.09135653,inf,inf,inf,inf,1,1,1,1,2,0,2,1,4,1,1,1
258213864,15154129,-33.9385715,18.8741563,-1.7315518,0.82992953,-0.4062883,-0.23954648,0.1367903,0.0,0.07384606,-0.03642397,0.036146857,0.09308141,-1.5294534,0.020032808,-0.32580173,0.35786885,-0.300637,-0.28653643,-2.6986098,0.0010599645,131.77486,0.101635486,0.28607634,0.4348884,0.13129422,0.08964422,inf,inf,inf,inf,1,1,1,1,2,0,2,1,4,1,1,1
258223868,15154129,-33.9385715,18.8741563,-1.730513,0.82991457,-0.40545812,-0.23954648,0.1367903,0.0,0.077863075,-0.03818745,0.033741567,0.09051753,-1.5294534,0.020032808,-0.32580173,0.38061476,-0.13098185,-0.23654202,-2.6972942,0.0010599645,131.77486,0.10114449,0.28688887,0.43543872,0.13173665,0.08976763,inf,inf,inf,inf,1,1,1,1,2,0,2,1,4,1,1,1
258233873,15154129,-33.9385715,18.8741563,-1.7294492,0.82988954,-0.4044983,-0.23954648,0.1367903,0.0,0.080656566,-0.03648121,0.03118897,0.08796246,-1.5294534,0.020032808,-0.32580173,0.24576524,0.19932152,-0.32127637,-2.6960933,0.0010599645,131.77486,0.10476142,0.28770643,0.43264666,0.13218066,0.089631,inf,inf,inf,inf,1,1,1,1,2,0,2,1,4,1,1,1
258243878,15154129,-33.9385715,18.8741563,-1.7283657,0.8298654,-0.4035907,-0.23954648,0.1367903,0.0,0.083774954,-0.0366785,0.028116392,0.08486501,-1.5294534,0.020032808,-0.32580173,0.31035632,-0.11388828,-0.3205331,-2.6951118,0.0010599645,131.77486,0.10420048,0.28852907,0.4331956,0.1326261,0.089754224,inf,inf,inf,inf,1,1,1,1,2,0,2,1,4,1,1,1
258253882,15154129,-33.9385715,18.8741563,-1.7272574,0.82982415,-0.40273508,-0.23954648,0.1367903,0.0,0.08713524,-0.03751844,0.025209283,0.08191137,-1.5294534,0.020032808,-0.32580173,0.28948855,-0.08025541,-0.30785465,-2.6939561,0.0010599645,131.77486,0.10369107,0.28935674,0.43374592,0.13306993,0.089878105,inf,inf,inf,inf,1,1,1,1,2,0,2,1,4,1,1,1
258263887,15154129,-33.9385715,18.8741563,-1.7261308,0.8297792,-0.40193522,-0.23954648,0.1367903,0.0,0.08902331,-0.035863485,0.021104049,0.07773885,-1.5294534,0.020032808,-0.32580173,0.13275513,0.12363513,-0.45515424,-2.6928914,0.0010599645,131.77486,0.103259414,0.2901895,0.43429765,0.13350597,0.090002134,inf,inf,inf,inf,1,1,1,1,2,0,2,1,4,1,1,1
258273891,15154129,-33.9385715,18.8741563,-1.7249917,0.82973313,-0.40119344,-0.23954648,0.1367903,0.0,0.09170446,-0.036622953,0.017730448,0.07427886,-1.5294534,0.020032808,-0.32580173,0.2912181,-0.23639266,-0.36378205,-2.6916876,0.0010599645,131.77486,0.102927715,0.2910273,0.4348508,0.13394408,0.09012493,inf,inf,inf,inf,1,1,1,1,2,0,2,1,4,1,1,1
258283896,15154129,-33.9385715,18.8741563,-1.7238348,0.8296747,-0.40050393,-0.23954648,0.1367903,0.0,0.09339895,-0.034490567,0.014791219,0.07123437,-1.5294534,0.020032808,-0.32580173,0.04896654,0.4716347,-0.2884436,-2.6907482,0.0010599645,131.77486,0.102654874,0.2918702,0.43540537,0.13438815,0.09024858,inf,inf,inf,inf,1,1,1,1,2,0,2,1,4,1,1,1
258293900,15154129,-33.9385715,18.8741563,-1.7226809,0.829652,-0.39987275,-0.23954648,0.1367903,0.0,0.09376499,-0.03044838,0.009999793,0.06631963,-1.5294534,0.020032808,-0.32580173,0.13678284,0.15796429,-0.46080568,-2.6900897,0.0010599645,131.77486,0.10245216,0.29271817,0.43596134,0.13483284,0.09037231,inf,inf,inf,inf,1,1,1,1,2,0,2,1,4,1,1,1
258303905,15154129,-33.9385715,18.8741563,-1.7215179,0.82962894,-0.3993069,-0.23954648,0.1367903,0.0,0.09552789,-0.030181266,0.0054353,0.061614662,-1.5294534,0.020032808,-0.32580173,0.057064198,0.3398525,-0.44076836,-2.6898935,0.0010599645,131.77486,0.102323174,0.29357126,0.43651873,0.13528283,0.090495236,inf,inf,inf,inf,1,1,1,1,2,0,2,1,4,1,1,1
258313909,15154129,-33.9385715,18.8741563,-1.7203646,0.82965016,-0.39880303,-0.23954648,0.1367903,0.0,0.09424392,-0.02270025,0.0009892093,0.057011902,-1.5294534,0.020032808,-0.32580173,-0.050279632,0.5448935,-0.46356973,-2.6902087,0.0010599645,131.77486,0.10226011,0.2944295,0.43707755,0.13573427,0.09061898,inf,inf,inf,inf,1,1,1,1,2,0,2,1,4,1,1,1
258323914,15154129,-33.9385715,18.8741563,-1.7192067,0.8296866,-0.39822936,-0.23954648,0.1367903,0.0,0.09689294,-0.023717321,-0.0019840682,0.053993497,-1.5294534,0.020032808,-0.32580173,0.16400796,0.091327675,-0.24786013,-2.6909137,0.0010599645,131.77486,0.105256885,0.29529294,0.43425617,0.13618888,0.09047467,inf,inf,inf,inf,1,1,1,1,2,0,2,1,4,1,1,1
258333918,15154129,-33.9385715,18.8741563,-1.7180508,0.82974577,-0.3977101,-0.23954648,0.1367903,0.0,0.09621983,-0.01849762,-0.0059433617,0.04996913,-1.5294534,0.020032808,-0.32580173,0.054283563,0.36765146,-0.37936106,-2.6918414,0.0010599645,131.77486,0.105181515,0.29616153,0.43481347,0.13664182,0.09059833,inf,inf,inf,inf,1,1,1,1,2,0,2,1,4,1,1,1
258343923,15154129,-33.9385715,18.8741563,-1.7168971,0.8298243,-0.3972448,-0.23954648,0.1367903,0.0,0.09631093,-0.016858285,-0.00899766,0.046830207,-1.5294534,0.020032808,-0.32580173,-0.15135959,0.3464076,-0.35074055,-2.6930242,0.0010599645,131.77486,0.105146736,0.29703534,0.43537217,0.13709529,0.09072214,inf,inf,inf,inf,1,1,1,1,2,0,2,1,4,1,1,1
258353929,15154129,-33.9385715,18.8741563,-1.7157487,0.8299174,-0.39683086,-0.23954648,0.1367903,0.0,0.097508945,-0.016448617,-0.012077081,0.043647505,-1.5294534,0.020032808,-0.32580173,0.194548,-0.20907827,-0.31497896,-2.6941009,0.0010599645,131.77486,0.10516024,0.29791436,0.4359323,0.13755095,0.090845615,inf,inf,inf,inf,1,1,1,1,2,0,2,1,4,1,1,1
258363937,15154129,-33.9385715,18.8741563,-1.7146192,0.8300303,-0.3964702,-0.23954648,0.1367903,0.0,0.093275346,-0.010549828,-0.015879406,0.039724234,-1.5294534,0.020032808,-0.32580173,-0.42098588,0.5566245,-0.38715887,-2.6954155,0.0010599645,131.77486,0.105223805,0.2987986,0.4364939,0.13800834,0.090969734,inf,inf,inf,inf,1,1,1,1,2,0,2,1,4,1,1,1
258373979,15154129,-33.9385715,18.8741563,-1.7135054,0.830156,-0.39616552,-0.23954648,0.1367903,0.0,0.093529016,-0.011119646,-0.019368397,0.03609724,-1.5294534,0.020032808,-0.32580173,-0.23747873,0.21468385,-0.33014375,-2.696571,0.0010599645,131.77486,0.1053291,0.29968807,0.4370569,0.13847175,0.09109311,inf,inf,inf,inf,1,1,1,1,2,0,2,1,4,1,1,1
258383955,15154129,-33.9385715,18.8741563,-1.7124324,0.83030266,-0.39590734,-0.23954648,0.1367903,0.0,0.090168305,-0.008388245,-0.022252612,0.0330593,-1.5294534,0.020032808,-0.32580173,-0.039562784,-0.05780799,-0.33352843,-2.697531,0.0010599645,131.77486,0.1054652,0.3005828,0.43762133,0.13893935,0.09121658,inf,inf,inf,inf,1,1,1,1,2,0,2,1,4,1,1,1
258393952,15154129,-33.9385715,18.8741563,-1.7113951,0.83047634,-0.395702,-0.23954648,0.1367903,0.0,0.08507975,-0.003152907,-0.025970433,0.02917233,-1.5294534,0.020032808,-0.32580173,-0.60380554,0.47408462,-0.32291225,-2.698588,0.0010599645,131.77486,0.105620354,0.30148286,0.43818718,0.13940914,0.091340154,inf,inf,inf,inf,1,1,1,1,2,0,2,1,4,1,1,1
258403951,15154129,-33.9385715,18.8741563,-1.7103975,0.83066237,-0.3953944,-0.23954648,0.1367903,0.0,0.08194622,-0.0014943571,-0.029721485,0.025393162,-1.5294534,0.020032808,-0.32580173,-0.65835434,0.7827892,-0.40192717,-2.699618,0.0010599645,131.77486,0.10949111,0.30238822,0.4353471,0.13988209,0.0911896,inf,inf,inf,inf,1,1,1,1,2,0,2,1,4,1,1,1
258413956,15154129,-33.9385715,18.8741563,-1.7096796,0.83064747,-0.39518487,-0.23954648,0.1367903,0.0,0.07937161,0.0013031734,-0.032590054,0.022430023,-1.5294534,0.020032808,-0.32580173,0.022905882,-0.1046959,-0.34708655,-2.7004561,0.0010599645,131.77486,0.10928157,0.28600636,0.43259636,0.13132885,0.08948692,inf,inf,inf,inf,1,1,1,1,2,0,2,1,4,1,1,1
258424009,15154129,-33.9385715,18.8741563,-1.7089919,0.8306687,-0.3950219,-0.23954648,0.1367903,0.0,0.07491029,0.004770029,-0.034295145,0.020612454,-1.5294534,0.020032808,-0.32580173,-0.14079116,-0.14143313,-0.111059345,-2.7014308,0.0010599645,131.77486,0.10911858,0.28681916,0.43314385,0.13179277,0.08961053,inf,inf,inf,inf,1,1,1,1,2,0,2,1,4,1,1,1
258433979,15154129,-33.9385715,18.8741563,-1.70834,0.8307137,-0.39489615,-0.23954648,0.1367903,0.0,0.0695989,0.010078768,-0.03700528,0.01777276,-1.5294534,0.020032808,-0.32580173,-0.9316644,0.8986218,-0.2293845,-2.7024913,0.0010599645,131.77486,0.108992845,0.28763705,0.43369278,0.13226354,0.089733556,inf,inf,inf,inf,1,1,1,1,2,0,2,1,4,1,1,1
258443969,15154129,-33.9385715,18.8741563,-1.7077317,0.8307865,-0.39482448,-0.23954648,0.1367903,0.0,0.0658878,0.011371232,-0.041987207,0.012644996,-1.5294534,0.020032808,-0.32580173,-0.6999132,0.7587776,-0.57017666,-2.7033393,0.0010599645,131.77486,0.10892117,0.28846005,0.4342431,0.13273385,0.08985702,inf,inf,inf,inf,1,1,1,1,2,0,2,1,4,1,1,1
258453981,15154129,-33.9385715,18.8741563,-1.7071596,0.8308823,-0.3948091,-0.23954648,0.1367903,0.0,0.06447842,0.010905568,-0.04472473,0.009746366,-1.5294534,0.020032808,-0.32580173,0.0672891,-0.08840725,-0.34781957,-2.703921,0.0010599645,131.77486,0.109015465,0.28928816,0.43479487,0.13320512,0.08997988,inf,inf,inf,inf,1,1,1,1,2,0,2,1,4,1,1,1
258463978,15154129,-33.9385715,18.8741563,-1.7066247,0.8309995,-0.39483842,-0.23954648,0.1367903,0.0,0.05964999,0.011641711,-0.048279665,0.006015558,-1.5294534,0.020032808,-0.32580173,-0.009921257,-0.7360793,-0.534888,-2.7042685,0.0010599645,131.77486,0.10917851,0.2901214,0.43534803,0.13368548,0.090102255,inf,inf,inf,inf,1,1,1,1,2,0,2,1,4,1,1,1
258473992,15154129,-33.9385715,18.8741563,-1.7061267,0.8311305,-0.39493293,-0.23954648,0.1367903,0.0,0.05606434,0.013733196,-0.05236493,0.0017406086,-1.5294534,0.020032808,-0.32580173,-0.009920023,-0.5129281,-0.17035113,-2.7045143,0.0010599645,131.77486,0.10936558,0.29095984,0.43590257,0.13416715,0.09022533,inf,inf,inf,inf,1,1,1,1,2,0,2,1,4,1,1,1
258483988,15154129,-33.9385715,18.8741563,-1.705656,0.8312746,-0.39507705,-0.23954648,0.1367903,0.0,0.05117396,0.017465828,-0.05600572,-0.002103223,-1.5294534,0.020032808,-0.32580173,-0.728162,0.31199017,-0.26554865,-2.704612,0.0010599645,131.77486,0.10955092,0.29180345,0.43645853,0.1346511,0.09034692,inf,inf,inf,inf,1,1,1,1,2,0,2,1,4,1,1,1
258493992,15154129,-33.9385715,18.8741563,-1.7052175,0.8314361,-0.3951769,-0.23954648,0.1367903,0.0,0.048396926,0.020840742,-0.05993458,-0.0061488724,-1.5294534,0.020032808,-0.32580173,-0.71100235,1.0550641,-0.26700288,-2.70453,0.0010599645,131.77486,0.11209738,0.2926523,0.4336486,0.13513146,0.09020551,inf,inf,inf,inf,1,1,1,1,2,0,2,1,4,1,1,1
258503996,15154129,-33.9385715,18.8741563,-1.7048057,0.83161736,-0.39533457,-0.23954648,0.1367903,0.0,0.045734327,0.023199083,-0.06440479,-0.010752308,-1.5294534,0.020032808,-0.32580173,-0.6716086,1.334684,-0.39742532,-2.7043884,0.0010599645,131.77486,0.11225507,0.29350632,0.43420306,0.13561808,0.09032756,inf,inf,inf,inf,1,1,1,1,2,0,2,1,4,1,1,1
258514002,15154129,-33.9385715,18.8741563,-1.70442,0.8318287,-0.39555034,-0.23954648,0.1367903,0.0,0.04289605,0.026248982,-0.06930657,-0.015802735,-1.5294534,0.020032808,-0.32580173,-0.713528,1.3184685,-0.67754805,-2.7042713,0.0010599645,131.77486,0.112470835,0.2943656,0.43475896,0.13610335,0.09045021,inf,inf,inf,inf,1,1,1,1,2,0,2,1,4,1,1,1
258524005,15154129,-33.9385715,18.8741563,-1.7040573,0.8320704,-0.39582202,-0.23954648,0.1367903,0.0,0.041769832,0.02810722,-0.07234731,-0.019007072,-1.5294534,0.020032808,-0.32580173,-0.384924,0.9826519,-0.49817923,-2.7042246,0.0010599645,131.77486,0.11274251,0.29523012,0.43531626,0.13659087,0.09057316,inf,inf,inf,inf,1,1,1,1,2,0,2,1,4,1,1,1
258534011,15154129,-33.9385715,18.8741563,-1.7037143,0.83234113,-0.39613476,-0.23954648,0.1367903,0.0,0.04057466,0.029961959,-0.07400594,-0.020843474,-1.5294534,0.020032808,-0.32580173,-0.040654264,0.5877218,-0.30564448,-2.7042665,0.0010599645,131.77486,0.11305526,0.2960999,0.43587503,0.13708365,0.090694554,inf,inf,inf,inf,1,1,1,1,2,0,2,1,4,1,1,1
258544014,15154129,-33.9385715,18.8741563,-1.703393,0.8326431,-0.39647892,-0.23954648,0.1367903,0.0,0.038875543,0.03152847,-0.07560203,-0.022630718,-1.5294534,0.020032808,-0.32580173,0.20331746,0.023500668,-0.29063606,-2.7043607,0.0010599645,131.77486,0.113399416,0.296975,0.43643516,0.1375782,0.090817444,inf,inf,inf,inf,1,1,1,1,2,0,2,1,4,1,1,1
258554025,15154129,-33.9385715,18.8741563,-1.7030947,0.83297586,-0.3968536,-0.23954648,0.1367903,0.0,0.035875294,0.033662215,-0.07714889,-0.024381496,-1.5294534,0.020032808,-0.32580173,0.09729055,-0.40009537,-0.31568524,-2.704561,0.0010599645,131.77486,0.11377409,0.29785535,0.43699676,0.13807051,0.090939365,inf,inf,inf,inf,1,1,1,1,2,0,2,1,4,1,1,1
258564024,15154129,-33.9385715,18.8741563,-1.7028326,0.8333431,-0.39726216,-0.23954648,0.1367903,0.0,0.031766366,0.036322773,-0.07960837,-0.027056824,-1.5294534,0.020032808,-0.32580173,0.0039652865,-0.76737463,-0.38084897,-2.7049592,0.0010599645,131.77486,0.11418265,0.29874104,0.43755972,0.13856904,0.091060646,inf,inf,inf,inf,1,1,1,1,2,0,2,1,4,1,1,1
258574028,15154129,-33.9385715,18.8741563,-1.7026142,0.8337449,-0.39771402,-0.23954648,0.1367903,0.0,0.02766989,0.039486866,-0.08249305,-0.030168919,-1.5294534,0.020032808,-0.32580173,0.11880557,-0.8912043,-0.3309143,-2.70576,0.0010599645,131.77486,0.114634514,0.29963204,0.43812415,0.13906966,0.091182694,inf,inf,inf,inf,1,1,1,1,2,0,2,1,4,1,1,1
258584033,15154129,-33.9385715,18.8741563,-1.7024403,0.8341816,-0.3982134,-0.23954648,0.1367903,0.0,0.022752106,0.042619713,-0.08629415,-0.034205254,-1.5294534,0.020032808,-0.32580173,0.03142178,-1.0372704,-0.27572823,-2.7069652,0.0010599645,131.77486,0.11513388,0.30052844,0.4352841,0.13956939,0.091032214,inf,inf,inf,inf,1,1,1,1,2,0,2,1,4,1,1,1
258594037,15154129,-33.9385715,18.8741563,-1.7023102,0.83464795,-0.39876074,-0.23954648,0.1367903,0.0,0.018272454,0.04572691,-0.08894259,-0.037099592,-1.5294534,0.020032808,-0.32580173,-0.03634387,-0.9920324,-0.046289306,-2.7083688,0.0010599645,131.77486,0.11568123,0.3014302,0.43584695,0.14006871,0.091153905,inf,inf,inf,inf,1,1,1,1,2,0,2,1,4,1,1,1
258604042,15154129,-33.9385715,18.8741563,-1.7022206,0.8351374,-0.39934513,-0.23954648,0.1367903,0.0,0.013950018,0.048279416,-0.09108219,-0.039494734,-1.5294534,0.020032808,-0.32580173,-0.1670257,-0.8107983,0.03308217,-2.70978,0.0010599645,131.77486,0.116265625,0.30233732,0.43641126,0.14057107,0.09127517,inf,inf,inf,inf,1,1,1,1,2,0,2,1,4,1,1,1
258614047,15154129,-33.9385715,18.8741563,-1.7021335,0.83592457,-0.4000882,-0.23954648,0.1367903,0.0,0.01100842,0.051726878,-0.09221998,-0.041031085,-1.5294534,0.020032808,-0.32580173,-0.2836359,-0.31010082,0.15905671,-2.711052,0.0010599645,131.77486,0.117008686,0.28594506,0.4336374,0.13195443,0.08956653,inf,inf,inf,inf,1,1,1,1,2,0,2,1,4,1,1,1
258624051,15154129,-33.9385715,18.8741563,-1.7020677,0.83672374,-0.40084773,-0.23954648,0.1367903,0.0,0.0091811465,0.054889716,-0.09290472,-0.042117506,-1.5294534,0.020032808,-0.32580173,-0.297125,0.1807503,0.200546,-2.7121625,0.0010599645,131.77486,0.11776823,0.28675884,0.43418628,0.13244583,0.08968937,inf,inf,inf,inf,1,1,1,1,2,0,2,1,4,1,1,1
258634057,15154129,-33.9385715,18.8741563,-1.702017,0.8375348,-0.4016192,-0.23954648,0.1367903,0.0,0.007687881,0.058261324,-0.09299936,-0.04261647,-1.5294534,0.020032808,-0.32580173,-0.33049053,0.70133615,0.28089064,-2.7130337,0.0010599645,131.77486,0.11853969,0.28757772,0.43473658,0.13294193,0.0898116,inf,inf,inf,inf,1,1,1,1,2,0,2,1,4,1,1,1
258644063,15154129,-33.9385715,18.8741563,-1.7019778,0.83835864,-0.4023945,-0.23954648,0.1367903,0.0,0.0064920667,0.061179228,-0.09284891,-0.042872887,-1.5294534,0.020032808,-0.32580173,-0.3823393,1.0750656,0.2010017,-2.7137234,0.0010599645,131.77486,0.119315,0.28840178,0.43528825,0.13344282,0.08993377,inf,inf,inf,inf,1,1,1,1,2,0,2,1,4,1,1,1
258654077,15154129,-33.9385715,18.8741563,-1.7019424,0.8391954,-0.4031647,-0.23954648,0.1367903,0.0,0.005845255,0.06374611,-0.09126146,-0.041694216,-1.5294534,0.020032808,-0.32580173,-0.57625145,1.3714331,0.20532463,-2.7142544,0.0010599645,131.77486,0.12008521,0.28923103,0.43584132,0.1339438,0.0900555,inf,inf,inf,inf,1,1,1,1,2,0,2,1,4,1,1,1
258664071,15154129,-33.9385715,18.8741563,-1.7019103,0.8400457,-0.40414324,-0.23954648,0.1367903,0.0,0.0055158623,0.06595302,-0.08942989,-0.04050063,-1.5294534,0.020032808,-0.32580173,-0.6580909,1.4541506,0.0589753,-2.714546,0.0010599645,131.77486,0.12106374,0.2900655,0.43304268,0.13444814,0.08991541,inf,inf,inf,inf,1,1,1,1,2,0,2,1,4,1,1,1
258674078,15154129,-33.9385715,18.8741563,-1.7018782,0.84090537,-0.40509623,-0.23954648,0.1367903,0.0,0.0062540495,0.06736407,-0.086438246,-0.038138416,-1.5294534,0.020032808,-0.32580173,-0.493945,1.5401981,0.14464472,-2.714679,0.0010599645,131.77486,0.12201673,0.29090518,0.4335943,0.1349564,0.09003768,inf,inf,inf,inf,1,1,1,1,2,0,2,1,4,1,1,1
258684078,15154129,-33.9385715,18.8741563,-1.7018491,0.84177846,-0.40601975,-0.23954648,0.1367903,0.0,0.0067529352,0.06889583,-0.08400416,-0.036325578,-1.5294534,0.020032808,-0.32580173,-0.19410011,1.3719887,0.069756985,-2.7148032,0.0010599645,131.77486,0.12294024,0.29175013,0.43414733,0.13546847,0.090159796,inf,inf,inf,inf,1,1,1,1,2,0,2,1,4,1,1,1
258694082,15154129,-33.9385715,18.8741563,-1.70182,0.8426674,-0.40691906,-0.23954648,0.1367903,0.0,0.007549519,0.069828436,-0.081614345,-0.034548756,-1.5294534,0.020032808,-0.32580173,0.072628945,0.96365905,0.10688253,-2.7150455,0.0010599645,131.77486,0.12383956,0.29260036,0.43470177,0.13597547,0.09028226,inf,inf,inf,inf,1,1,1,1,2,0,2,1,4,1,1,1
258704087,15154129,-33.9385715,18.8741563,-1.7017878,0.84357196,-0.40778956,-0.23954648,0.1367903,0.0,0.00810238,0.07071081,-0.07880795,-0.032347385,-1.5294534,0.020032808,-0.32580173,0.18219861,0.4786681,0.080067165,-2.7155085,0.0010599645,131.77486,0.12471005,0.29345593,0.43525758,0.13647953,0.09040469,inf,inf,inf,inf,1,1,1,1,2,0,2,1,4,1,1,1
258714092,15154129,-33.9385715,18.8741563,-1.7017498,0.84448886,-0.40863022,-0.23954648,0.1367903,0.0,0.008726507,0.07080673,-0.07596761,-0.030104209,-1.5294534,0.020032808,-0.32580173,0.19163848,-0.13880353,0.06802081,-2.7162132,0.0010599645,131.77486,0.12555072,0.2943167,0.43581486,0.13698521,0.09052707,inf,inf,inf,inf,1,1,1,1,2,0,2,1,4,1,1,1
258724097,15154129,-33.9385715,18.8741563,-1.701707,0.84540105,-0.40944627,-0.23954648,0.1367903,0.0,0.010070132,0.06944566,-0.0733228,-0.02804852,-1.5294534,0.020032808,-0.32580173,0.4763899,-0.5912111,0.21606883,-2.7171028,0.0010599645,131.77486,0.12636676,0.29518282,0.43637353,0.13749306,0.09064919,inf,inf,inf,inf,1,1,1,1,2,0,2,1,4,1,1,1
258734101,15154129,-33.9385715,18.8741563,-1.7016544,0.84629405,-0.41024086,-0.23954648,0.1367903,0.0,0.011507389,0.066821575,-0.07079932,-0.026106505,-1.5294534,0.020032808,-0.32580173,0.65113777,-1.0080012,0.42364094,-2.71802,0.0010599645,131.77486,0.12716135,0.29605427,0.43693364,0.13800591,0.09077106,inf,inf,inf,inf,1,1,1,1,2,0,2,1,4,1,1,1
258744105,15154129,-33.9385715,18.8741563,-1.7015859,0.84715945,-0.41101652,-0.23954648,0.1367903,0.0,0.013778656,0.06364726,-0.06912089,-0.025001759,-1.5294534,0.020032808,-0.32580173,0.8414875,-1.3693448,0.4775653,-2.7187982,0.0010599645,131.77486,0.12793702,0.29693106,0.43749514,0.1385225,0.09089282,inf,inf,inf,inf,1,1,1,1,2,0,2,1,4,1,1,1
258754110,15154129,-33.9385715,18.8741563,-1.7014925,0.84799165,-0.4121033,-0.23954648,0.1367903,0.0,0.016078927,0.05991614,-0.06668535,-0.023467576,-1.5294534,0.020032808,-0.32580173,0.7698264,-1.7206745,0.58499175,-2.7193468,0.0010599645,131.77486,0.12902379,0.29781324,0.43466678,0.13904454,0.09074478,inf,inf,inf,inf,1,1,1,1,2,0,2,1,4,1,1,1
258764114,15154129,-33.9385715,18.8741563,-1.7013739,0.84878755,-0.41315338,-0.23954648,0.1367903,0.0,0.018244985,0.05748953,-0.064659394,-0.022320556,-1.5294534,0.020032808,-0.32580173,0.6445063,-1.6068972,0.49582607,-2.7196748,0.0010599645,131.77486,0.13007388,0.29870084,0.43522674,0.13956416,0.09086659,inf,inf,inf,inf,1,1,1,1,2,0,2,1,4,1,1,1
258774120,15154129,-33.9385715,18.8741563,-1.7012265,0.84954864,-0.41416982,-0.23954648,0.1367903,0.0,0.020606358,0.055134557,-0.06225517,-0.02077375,-1.5294534,0.020032808,-0.32580173,0.41783935,-1.3870895,0.56507415,-2.7197895,0.0010599645,131.77486,0.13109031,0.29959387,0.43578815,0.14008377,0.090988465,inf,inf,inf,inf,1,1,1,1,2,0,2,1,4,1,1,1
258784124,15154129,-33.9385715,18.8741563,-1.7010565,0.8502726,-0.41515648,-0.23954648,0.1367903,0.0,0.022559168,0.053257786,-0.060798932,-0.020153804,-1.5294534,0.020032808,-0.32580173,0.32845894,-0.8997484,0.54404557,-2.7195964,0.0010599645,131.77486,0.13207698,0.30049232,0.43635097,0.14060134,0.09111038,inf,inf,inf,inf,1,1,1,1,2,0,2,1,4,1,1,1
258794128,15154129,-33.9385715,18.8741563,-1.7008681,0.85096276,-0.41611946,-0.23954648,0.1367903,0.0,0.02359913,0.051437985,-0.059956867,-0.020127706,-1.5294534,0.020032808,-0.32580173,0.0918787,-0.45841533,0.45627633,-2.7190502,0.0010599645,131.77486,0.13303995,0.30139622,0.43691522,0.14111897,0.09123245,inf,inf,inf,inf,1,1,1,1,2,0,2,1,4,1,1,1
258804133,15154129,-33.9385715,18.8741563,-1.7006681,0.85162586,-0.4170592,-0.23954648,0.1367903,0.0,0.023585068,0.05005839,-0.05913285,-0.0200999,-1.5294534,0.020032808,-0.32580173,-0.29129776,-0.12611082,0.303799,-2.7181373,0.0010599645,131.77486,0.13397971,0.30230558,0.4374809,0.1416363,0.091354504,inf,inf,inf,inf,1,1,1,1,2,0,2,1,4,1,1,1
258814140,15154129,-33.9385715,18.8741563,-1.7005936,0.85236216,-0.4182461,-0.23954648,0.1367903,0.0,0.023512164,0.050088055,-0.058029532,-0.020052006,-1.5294534,0.020032808,-0.32580173,-0.49928185,0.12094218,0.22272822,-2.7170587,0.0010599645,131.77486,0.13516659,0.28587186,0.43468395,0.13287279,0.08964158,inf,inf,inf,inf,1,1,1,1,2,0,2,1,4,1,1,1
258824180,15154129,-33.9385715,18.8741563,-1.7005105,0.8530959,-0.4193958,-0.23954648,0.1367903,0.0,0.023867814,0.051323924,-0.056199733,-0.019246764,-1.5294534,0.020032808,-0.32580173,-0.57704306,0.44830784,0.08099848,-2.7160356,0.0010599645,131.77486,0.1363163,0.28668645,0.43523416,0.1333711,0.08976408,inf,inf,inf,inf,1,1,1,1,2,0,2,1,4,1,1,1
258834159,15154129,-33.9385715,18.8741563,-1.7004251,0.85383165,-0.42049995,-0.23954648,0.1367903,0.0,0.024514413,0.05332189,-0.053940598,-0.017982107,-1.5294534,0.020032808,-0.32580173,-0.38251606,0.76565045,-0.013730178,-2.7152483,0.0010599645,131.77486,0.13742045,0.2875062,0.43578574,0.13386942,0.08988663,inf,inf,inf,inf,1,1,1,1,2,0,2,1,4,1,1,1
258844147,15154129,-33.9385715,18.8741563,-1.700335,0.85457224,-0.42187893,-0.23954648,0.1367903,0.0,0.025018904,0.054541085,-0.05129154,-0.016619679,-1.5294534,0.020032808,-0.32580173,-0.24266022,0.9672166,-0.05058281,-2.7148404,0.0010599645,131.77486,0.13879943,0.28833112,0.43298692,0.1343657,0.08974826,inf,inf,inf,inf,1,1,1,1,2,0,2,1,4,1,1,1
258854156,15154129,-33.9385715,18.8741563,-1.7002399,0.85531193,-0.4232066,-0.23954648,0.1367903,0.0,0.025316676,0.05463468,-0.049372446,-0.015944906,-1.5294534,0.020032808,-0.32580173,-0.15604517,0.99457103,-0.18724309,-2.7146902,0.0010599645,131.77486,0.1401271,0.2891612,0.43353707,0.13486548,0.08987108,inf,inf,inf,inf,1,1,1,1,2,0,2,1,4,1,1,1
258864160,15154129,-33.9385715,18.8741563,-1.7001362,0.8560399,-0.4244818,-0.23954648,0.1367903,0.0,0.026191326,0.052884858,-0.046999052,-0.014774814,-1.5294534,0.020032808,-0.32580173,-0.08824561,0.73077196,-0.2886946,-2.714669,0.0010599645,131.77486,0.1414023,0.28999653,0.43408862,0.13536727,0.08999399,inf,inf,inf,inf,1,1,1,1,2,0,2,1,4,1,1,1
258874196,15154129,-33.9385715,18.8741563,-1.7000195,0.8567468,-0.42570916,-0.23954648,0.1367903,0.0,0.027363954,0.049805753,-0.0451452,-0.014084428,-1.5294534,0.020032808,-0.32580173,0.007181759,0.3134585,-0.4168787,-2.7146225,0.0010599645,131.77486,0.14262965,0.29083708,0.43464157,0.13586931,0.09011685,inf,inf,inf,inf,1,1,1,1,2,0,2,1,4,1,1,1
258884168,15154129,-33.9385715,18.8741563,-1.6998918,0.8574194,-0.42689288,-0.23954648,0.1367903,0.0,0.029212013,0.045971252,-0.042903338,-0.012967601,-1.5294534,0.020032808,-0.32580173,0.29672483,-0.13277665,-0.19092688,-2.7143307,0.0010599645,131.77486,0.14381337,0.29168287,0.43519595,0.1363729,0.09023981,inf,inf,inf,inf,1,1,1,1,2,0,2,1,4,1,1,1
258894174,15154129,-33.9385715,18.8741563,-1.6997453,0.8580489,-0.42803514,-0.23954648,0.1367903,0.0,0.0312409,0.04154168,-0.040664706,-0.011816813,-1.5294534,0.020032808,-0.32580173,0.50436634,-0.3038261,-0.035017174,-2.7137818,0.0010599645,131.77486,0.14495564,0.29253393,0.43575174,0.13687861,0.09036303,inf,inf,inf,inf,1,1,1,1,2,0,2,1,4,1,1,1
258904178,15154129,-33.9385715,18.8741563,-1.6995848,0.8586363,-0.4291347,-0.23954648,0.1367903,0.0,0.03267503,0.038430396,-0.037877187,-0.010080883,-1.5294534,0.020032808,-0.32580173,0.7200848,-0.2447437,0.27915746,-2.7129493,0.0010599645,131.77486,0.14605519,0.29339027,0.43630895,0.13738616,0.09048641,inf,inf,inf,inf,1,1,1,1,2,0,2,1,4,1,1,1
258914183,15154129,-33.9385715,18.8741563,-1.6994116,0.8591873,-0.4301896,-0.23954648,0.1367903,0.0,0.032967255,0.03544915,-0.03533451,-0.008554942,-1.5294534,0.020032808,-0.32580173,0.57199675,-0.2513135,0.45651203,-2.7119336,0.0010599645,131.77486,0.1471101,0.29425195,0.43686754,0.13789842,0.09060995,inf,inf,inf,inf,1,1,1,1,2,0,2,1,4,1,1,1
258924187,15154129,-33.9385715,18.8741563,-1.6992337,0.8597114,-0.43142805,-0.23954648,0.1367903,0.0,0.032469943,0.033722747,-0.032425016,-0.006858073,-1.5294534,0.020032808,-0.32580173,0.39593306,-0.2452284,0.71709716,-2.7108655,0.0010599645,131.77486,0.14834854,0.29511896,0.43405083,0.13840935,0.09046657,inf,inf,inf,inf,1,1,1,1,2,0,2,1,4,1,1,1
258934192,15154129,-33.9385715,18.8741563,-1.6990484,0.86022156,-0.43260762,-0.23954648,0.1367903,0.0,0.03287345,0.032303445,-0.029054664,-0.004657535,-1.5294534,0.020032808,-0.32580173,0.288054,-0.54074514,0.83954185,-2.7099175,0.0010599645,131.77486,0.14952812,0.29599136,0.43460795,0.13892373,0.09059006,inf,inf,inf,inf,1,1,1,1,2,0,2,1,4,1,1,1
258944196,15154129,-33.9385715,18.8741563,-1.6988561,0.8607186,-0.43373057,-0.23954648,0.1367903,0.0,0.03300529,0.0314586,-0.02623117,-0.0029623774,-1.5294534,0.020032808,-0.32580173,0.19396488,-0.6531941,0.90034735,-2.709186,0.0010599645,131.77486,0.15065107,0.2968691,0.43516648,0.13943845,0.09071356,inf,inf,inf,inf,1,1,1,1,2,0,2,1,4,1,1,1
258954202,15154129,-33.9385715,18.8741563,-1.6986533,0.8612064,-0.43480435,-0.23954648,0.1367903,0.0,0.03379934,0.030332813,-0.024440972,-0.002260469,-1.5294534,0.020032808,-0.32580173,0.12923703,-0.9185146,0.85098773,-2.708544,0.0010599645,131.77486,0.1,0.29775226,0.43572643,0.13995837,0.090836935,inf,inf,inf,inf,1,1,1,1,2,0,2,1,4,1,1,1
258964206,15154129,-33.9385715,18.8741563,-1.6984384,0.8616761,-0.4358384,-0.23954648,0.1367903,0.0,0.03466456,0.029644445,-0.023400655,-0.0022696857,-1.5294534,0.020032808,-0.32580173,0.067809574,-0.71113867,0.81776583,-2.708001,0.0010599645,131.77486,0.1,0.29864085,0.43628782,0.14040078,0.09095996,inf,inf,inf,inf,1,1,1,1,2,0,2,1,4,1,1,1
258974210,15154129,-33.9385715,18.8741563,-1.6982055,0.8621315,-0.43683407,-0.23954648,0.1367903,0.0,0.036152266,0.02893308,-0.022212459,-0.0020935659,-1.5294534,0.020032808,-0.32580173,-0.03735976,-0.5976698,0.76166445,-2.7075188,0.0010599645,131.77486,0.1,0.2995349,0.43685064,0.14084418,0.091082774,inf,inf,inf,inf,1,1,1,1,2,0,2,1,4,1,1,1
258984216,15154129,-33.9385715,18.8741563,-1.6979493,0.862569,-0.4377919,-0.23954648,0.1367903,0.0,0.03816637,0.027789064,-0.02167902,-0.0025359783,-1.5294534,0.020032808,-0.32580173,-0.14801508,-0.4602102,0.5048801,-2.707111,0.0010599645,131.77486,0.1,0.30043432,0.43741485,0.1412872,0.09120539,inf,inf,inf,inf,1,1,1,1,2,0,2,1,4,1,1,1
258994229,15154129,-33.9385715,18.8741563,-1.6976657,0.8629857,-0.43870747,-0.23954648,0.1367903,0.0,0.040579814,0.025242092,-0.0202346,-0.0020323144,-1.5294534,0.020032808,-0.32580173,-0.24813499,-0.65388066,0.23423485,-2.706705,0.0010599645,131.77486,0.1,0.30133918,0.4379805,0.14172955,0.091327846,inf,inf,inf,inf,1,1,1,1,2,0,2,1,4,1,1,1
259004230,15154129,-33.9385715,18.8741563,-1.6973553,0.8633716,-0.4395747,-0.23954648,0.1367903,0.0,0.043323297,0.022390831,-0.01837245,-0.0010769932,-1.5294534,0.020032808,-0.32580173,-0.20277773,-0.691,-0.08544,-2.7061665,0.0010599645,131.77486,0.1,0.3022495,0.4385476,0.14216894,0.09145021,inf,inf,inf,inf,1,1,1,1,2,0,2,1,4,1,1,1
259014231,15154129,-33.9385715,18.8741563,-1.6971666,0.86386704,-0.44053262,-0.23954648,0.1367903,0.0,0.045427624,0.019715816,-0.015968256,0.00031395874,-1.5294534,0.020032808,-0.32580173,-0.2752783,-0.5286125,-0.34797174,-2.7054708,0.0010599645,131.77486,0.1,0.28581637,0.43238953,0.13326399,0.08947325,inf,inf,inf,inf,1,1,1,1,2,0,2,1,4,1,1,1
259024240,15154129,-33.9385715,18.8741563,-1.696957,0.8643236,-0.44143355,-0.23954648,0.1367903,0.0,0.046847437,0.017719332,-0.01298541,0.002321452,-1.5294534,0.020032808,-0.32580173,-0.20346032,-0.12699541,-0.44686553,-2.7047029,0.0010599645,131.77486,0.1,0.28663126,0.43293685,0.1336929,0.08959619,inf,inf,inf,inf,1,1,1,1,2,0,2,1,4,1,1,1
259034238,15154129,-33.9385715,18.8741563,-1.6967362,0.86474276,-0.44228032,-0.23954648,0.1367903,0.0,0.04754749,0.015266105,-0.010747423,0.0036208741,-1.5294534,0.020032808,-0.32580173,-0.064164884,0.1407963,-0.62374985,-2.7040286,0.0010599645,131.77486,0.1,0.28745133,0.4334856,0.13412042,0.08971944,inf,inf,inf,inf,1,1,1,1,2,0,2,1,4,1,1,1
259044243,15154129,-33.9385715,18.8741563,-1.6965121,0.86512524,-0.44308123,-0.23954648,0.1367903,0.0,0.04762147,0.0129180895,-0.0084960945,0.0049689906,-1.5294534,0.020032808,-0.32580173,0.15155783,0.3659323,-0.5908366,-2.7035787,0.0010599645,131.77486,0.1,0.28827658,0.43403572,0.13455145,0.089842886,inf,inf,inf,inf,1,1,1,1,2,0,2,1,4,1,1,1
259054247,15154129,-33.9385715,18.8741563,-1.6962881,0.8654782,-0.44384307,-0.23954648,0.1367903,0.0,0.046989594,0.0105851125,-0.007908775,0.0046874583,-1.5294534,0.020032808,-0.32580173,0.22626343,0.31510997,-0.79924285,-2.7034273,0.0010599645,131.77486,0.1,0.28910705,0.43458724,0.13497944,0.08996649,inf,inf,inf,inf,1,1,1,1,2,0,2,1,4,1,1,1
259064251,15154129,-33.9385715,18.8741563,-1.6960652,0.86579615,-0.44457483,-0.23954648,0.1367903,0.0,0.046703637,0.0078057833,-0.0069176713,0.0048427633,-1.5294534,0.020032808,-0.32580173,0.36471963,0.35385427,-0.7231963,-2.7035036,0.0010599645,131.77486,0.1,0.28994274,0.4351402,0.13540933,0.09009019,inf,inf,inf,inf,1,1,1,1,2,0,2,1,4,1,1,1
259074256,15154129,-33.9385715,18.8741563,-1.6958383,0.8660795,-0.44527692,-0.23954648,0.1367903,0.0,0.046072714,0.0048310314,-0.00559144,0.00536514,-1.5294534,0.020032808,-0.32580173,0.24632397,0.2727956,-0.5105221,-2.7036612,0.0010599645,131.77486,0.1,0.29078364,0.43569455,0.13583809,0.090213604,inf,inf,inf,inf,1,1,1,1,2,0,2,1,4,1,1,1
259084314,15154129,-33.9385715,18.8741563,-1.6956042,0.8663267,-0.44594726,-0.23954648,0.1367903,0.0,0.04687434,0.002269426,-0.002948411,0.007235238,-1.5294534,0.020032808,-0.32580173,0.4709058,0.3722228,0.022779081,-2.7037883,0.0010599645,131.77486,0.1,0.2916298,0.43625033,0.13626854,0.09033686,inf,inf,inf,inf,1,1,1,1,2,0,2,1,4,1,1,1
259094270,15154129,-33.9385715,18.8741563,-1.6953652,0.8665412,-0.44658187,-0.23954648,0.1367903,0.0,0.047060408,-0.00047472972,-0.0004011758,0.009039361,-1.5294534,0.020032808,-0.32580173,0.46128592,0.32258523,0.4939864,-2.7038145,0.0010599645,131.77486,0.1,0.29248118,0.43680748,0.13669845,0.090459816,inf,inf,inf,inf,1,1,1,1,2,0,2,1,4,1,1,1
259104270,15154129,-33.9385715,18.8741563,-1.6951209,0.8667241,-0.4473301,-0.23954648,0.1367903,0.0,0.04738015,-0.0031353731,0.0019152478,0.010493058,-1.5294534,0.020032808,-0.32580173,0.672983,0.23945475,0.9350782,-2.7036824,0.0010599645,131.77486,0.1,0.29333782,0.43399072,0.13712737,0.09031684,inf,inf,inf,inf,1,1,1,1,2,0,2,1,4,1,1,1
259114274,15154129,-33.9385715,18.8741563,-1.6948687,0.86688125,-0.44803834,-0.23954648,0.1367903,0.0,0.046335388,-0.006033272,0.0032135565,0.010963034,-1.5294534,0.020032808,-0.32580173,0.29101452,-0.15117234,0.97531605,-2.7033546,0.0010599645,131.77486,0.1,0.2941997,0.4345464,0.13755907,0.09043983,inf,inf,inf,inf,1,1,1,1,2,0,2,1,4,1,1,1
259124279,15154129,-33.9385715,18.8741563,-1.6946142,0.8670179,-0.44870913,-0.23954648,0.1367903,0.0,0.045370623,-0.0074238107,0.004817704,0.011772364,-1.5294534,0.020032808,-0.32580173,0.014844632,-0.31752726,1.0879611,-2.7028134,0.0010599645,131.77486,0.1,0.2950669,0.4351035,0.13799517,0.09056291,inf,inf,inf,inf,1,1,1,1,2,0,2,1,4,1,1,1
259134283,15154129,-33.9385715,18.8741563,-1.6943548,0.8671473,-0.4493391,-0.23954648,0.1367903,0.0,0.044657905,-0.0071959808,0.0066064354,0.0127983475,-1.5294534,0.020032808,-0.32580173,-0.30136073,-0.36403164,1.1055872,-2.7020357,0.0010599645,131.77486,0.1,0.29593936,0.43566203,0.13843471,0.090685904,inf,inf,inf,inf,1,1,1,1,2,0,2,1,4,1,1,1
259144288,15154129,-33.9385715,18.8741563,-1.6940918,0.867282,-0.4499309,-0.23954648,0.1367903,0.0,0.044433698,-0.0055158716,0.008193717,0.013654015,-1.5294534,0.020032808,-0.32580173,-0.391353,-0.30199194,1.1631134,-2.7011557,0.0010599645,131.77486,0.1,0.29681715,0.43622196,0.13887438,0.09080896,inf,inf,inf,inf,1,1,1,1,2,0,2,1,4,1,1,1
259154292,15154129,-33.9385715,18.8741563,-1.6938254,0.8674343,-0.45048687,-0.23954648,0.1367903,0.0,0.04461746,-0.0029349988,0.009184566,0.01394315,-1.5294534,0.020032808,-0.32580173,-0.33176625,-0.30585662,1.0667473,-2.7002742,0.0010599645,131.77486,0.1,0.29770026,0.4367833,0.1393172,0.0909321,inf,inf,inf,inf,1,1,1,1,2,0,2,1,4,1,1,1
259164297,15154129,-33.9385715,18.8741563,-1.6935561,0.8676083,-0.45100892,-0.23954648,0.1367903,0.0,0.04460751,-0.0003592654,0.009980832,0.0140665695,-1.5294534,0.020032808,-0.32580173,-0.27394867,-0.3755017,0.8864685,-2.6994126,0.0010599645,131.77486,0.1,0.29858875,0.4373461,0.13975751,0.09105549,inf,inf,inf,inf,1,1,1,1,2,0,2,1,4,1,1,1
259174304,15154129,-33.9385715,18.8741563,-1.693282,0.86780906,-0.45149106,-0.23954648,0.1367903,0.0,0.04463406,0.002666666,0.010935944,0.01437702,-1.5294534,0.020032808,-0.32580173,-0.2895772,-0.5041426,0.46525988,-2.6985362,0.0010599645,131.77486,0.1,0.29948255,0.43791032,0.14019653,0.09117894,inf,inf,inf,inf,1,1,1,1,2,0,2,1,4,1,1,1
259184306,15154129,-33.9385715,18.8741563,-1.6930017,0.8680249,-0.45220298,-0.23954648,0.1367903,0.0,0.044536836,0.004093303,0.012035157,0.014585184,-1.5294534,0.020032808,-0.32580173,-0.42927015,-0.58326757,0.007029581,-2.6976104,0.0010599645,131.77486,0.1,0.30038172,0.43507504,0.14063439,0.09103033,inf,inf,inf,inf,1,1,1,1,2,0,2,1,4,1,1,1
259194310,15154129,-33.9385715,18.8741563,-1.6927153,0.86824876,-0.45286635,-0.23954648,0.1367903,0.0,0.04480597,0.0060323435,0.012519626,0.014216789,-1.5294534,0.020032808,-0.32580173,-0.44327843,-0.37636366,-0.5719592,-2.6965268,0.0010599645,131.77486,0.1,0.30128625,0.4356377,0.1410712,0.09115358,inf,inf,inf,inf,1,1,1,1,2,0,2,1,4,1,1,1
259204315,15154129,-33.9385715,18.8741563,-1.6924268,0.8684765,-0.45349514,-0.23954648,0.1367903,0.0,0.045256656,0.0074245934,0.012760078,0.013641096,-1.5294534,0.020032808,-0.32580173,-0.20789698,-0.09878981,-0.77291304,-2.6952405,0.0010599645,131.77486,0.1,0.30219615,0.4362018,0.14151105,0.091276765,inf,inf,inf,inf,1,1,1,1,2,0,2,1,4,1,1,1
259214321,15154129,-33.9385715,18.8741563,-1.6919607,0.8685177,-0.4542666,-0.23954648,0.1367903,0.0,0.04604242,0.008456997,0.012703645,0.012625538,-1.5294534,0.020032808,-0.32580173,0.08291265,0.2065703,-0.96477735,-2.6938028,0.0010599645,131.77486,0.1,0.28574294,0.43343148,0.1326914,0.08956886,inf,inf,inf,inf,1,1,1,1,2,0,2,1,4,1,1,1
259224324,15154129,-33.9385715,18.8741563,-1.6914945,0.8685661,-0.45500252,-0.23954648,0.1367903,0.0,0.046552673,0.010010889,0.013466612,0.012471398,-1.5294534,0.020032808,-0.32580173,0.27920377,0.53296494,-0.94926697,-2.6923306,0.0010599645,131.77486,0.1,0.28655806,0.43398017,0.13312514,0.089692034,inf,inf,inf,inf,1,1,1,1,2,0,2,1,4,1,1,1
259234329,15154129,-33.9385715,18.8741563,-1.691021,0.86862993,-0.45569736,-0.23954648,0.1367903,0.0,0.047662884,0.0118712615,0.01473565,0.012864242,-1.5294534,0.020032808,-0.32580173,0.36993942,0.68384933,-0.94230425,-2.6909251,0.0010599645,131.77486,0.1,0.28737828,0.43453026,0.13355815,0.089815296,inf,inf,inf,inf,1,1,1,1,2,0,2,1,4,1,1,1
259244338,15154129,-33.9385715,18.8741563,-1.6905369,0.868711,-0.4563477,-0.23954648,0.1367903,0.0,0.048810195,0.013565948,0.017355395,0.014646905,-1.5294534,0.020032808,-0.32580173,0.3906644,0.7287012,-0.663738,-2.6896343,0.0010599645,131.77486,0.1,0.2882037,0.43508175,0.13399075,0.08993852,inf,inf,inf,inf,1,1,1,1,2,0,2,1,4,1,1,1
259254338,15154129,-33.9385715,18.8741563,-1.6900367,0.86880624,-0.4569478,-0.23954648,0.1367903,0.0,0.05113397,0.0150430435,0.02033716,0.016829278,-1.5294534,0.020032808,-0.32580173,0.52751225,0.81014466,-0.40808558,-2.6884933,0.0010599645,131.77486,0.1,0.28903425,0.43563467,0.13442126,0.09006183,inf,inf,inf,inf,1,1,1,1,2,0,2,1,4,1,1,1
259264342,15154129,-33.9385715,18.8741563,-1.6895174,0.8689074,-0.45750037,-0.23954648,0.1367903,0.0,0.053269792,0.015086952,0.023545349,0.019274428,-1.5294534,0.020032808,-0.32580173,0.6359223,0.76959825,0.05292838,-2.687483,0.0010599645,131.77486,0.1,0.28987,0.436189,0.13484924,0.090185076,inf,inf,inf,inf,1,1,1,1,2,0,2,1,4,1,1,1
259274392,15154129,-33.9385715,18.8741563,-1.6889763,0.8690069,-0.45827955,-0.23954648,0.1367903,0.0,0.05506916,0.014515026,0.02652055,0.021243325,-1.5294534,0.020032808,-0.32580173,0.60543984,0.7207079,0.4199631,-2.686414,0.0010599645,131.77486,0.1,0.29071087,0.43338358,0.1352802,0.090044975,inf,inf,inf,inf,1,1,1,1,2,0,2,1,4,1,1,1
259284370,15154129,-33.9385715,18.8741563,-1.6884224,0.86909825,-0.4590091,-0.23954648,0.1367903,0.0,0.055775642,0.012457442,0.028456034,0.022218782,-1.5294534,0.020032808,-0.32580173,0.3382824,0.35578048,0.6819478,-2.6852655,0.0010599645,131.77486,0.1,0.29155695,0.43393645,0.13571571,0.090168156,inf,inf,inf,inf,1,1,1,1,2,0,2,1,4,1,1,1
259294359,15154129,-33.9385715,18.8741563,-1.687859,0.86917955,-0.45969552,-0.23954648,0.1367903,0.0,0.056263953,0.010677694,0.029442277,0.022289539,-1.5294534,0.020032808,-0.32580173,0.17529528,0.01710269,0.8421805,-2.6841807,0.0010599645,131.77486,0.1,0.29240826,0.4344907,0.13615097,0.090291105,inf,inf,inf,inf,1,1,1,1,2,0,2,1,4,1,1,1
259304390,15154129,-33.9385715,18.8741563,-1.6872838,0.86925477,-0.46035153,-0.23954648,0.1367903,0.0,0.056896273,0.009416295,0.029014556,0.020989267,-1.5294534,0.020032808,-0.32580173,0.012167113,-0.28947866,0.98271966,-2.683215,0.0010599645,131.77486,0.1,0.29326478,0.4350464,0.13658631,0.09041381,inf,inf,inf,inf,1,1,1,1,2,0,2,1,4,1,1,1
259314372,15154129,-33.9385715,18.8741563,-1.6867015,0.8693283,-0.4609873,-0.23954648,0.1367903,0.0,0.05852137,0.00948062,0.028189396,0.019332988,-1.5294534,0.020032808,-0.32580173,0.13988358,-0.36825502,1.1243623,-2.6823857,0.0010599645,131.77486,0.1,0.2941265,0.4356035,0.13702321,0.09053633,inf,inf,inf,inf,1,1,1,1,2,0,2,1,4,1,1,1
259324370,15154129,-33.9385715,18.8741563,-1.6860998,0.86940944,-0.4616015,-0.23954648,0.1367903,0.0,0.06005729,0.010227274,0.026599456,0.016952222,-1.5294534,0.020032808,-0.32580173,0.0019135084,-0.44965068,0.9790624,-2.6816888,0.0010599645,131.77486,0.1,0.2949935,0.43616202,0.13746297,0.09065875,inf,inf,inf,inf,1,1,1,1,2,0,2,1,4,1,1,1
259334375,15154129,-33.9385715,18.8741563,-1.6854756,0.8695055,-0.46219656,-0.23954648,0.1367903,0.0,0.06263606,0.012086769,0.025211014,0.014811459,-1.5294534,0.020032808,-0.32580173,0.03352034,-0.43749338,0.842576,-2.6811306,0.0010599645,131.77486,0.1,0.29586574,0.43672195,0.13790421,0.090781115,inf,inf,inf,inf,1,1,1,1,2,0,2,1,4,1,1,1
259344379,15154129,-33.9385715,18.8741563,-1.6848218,0.8696193,-0.4627676,-0.23954648,0.1367903,0.0,0.06526087,0.013812698,0.024098596,0.012983844,-1.5294534,0.020032808,-0.32580173,-0.12777103,-0.4750065,0.54758626,-2.6806314,0.0010599645,131.77486,0.1,0.2967433,0.43728328,0.13834573,0.0909034,inf,inf,inf,inf,1,1,1,1,2,0,2,1,4,1,1,1
259354383,15154129,-33.9385715,18.8741563,-1.6841378,0.8697529,-0.4633161,-0.23954648,0.1367903,0.0,0.06855958,0.016148852,0.022538116,0.010744319,-1.5294534,0.020032808,-0.32580173,-0.09964998,-0.41694498,0.16187413,-2.6801255,0.0010599645,131.77486,0.1,0.2976261,0.43784606,0.138787,0.09102589,inf,inf,inf,inf,1,1,1,1,2,0,2,1,4,1,1,1
259364388,15154129,-33.9385715,18.8741563,-1.6834224,0.86990166,-0.46411118,-0.23954648,0.1367903,0.0,0.07192457,0.017353846,0.021033958,0.008327445,-1.5294534,0.020032808,-0.32580173,-0.031995878,-0.44443092,-0.1873372,-2.6794918,0.0010599645,131.77486,0.1,0.29851425,0.43501085,0.13923134,0.090877384,inf,inf,inf,inf,1,1,1,1,2,0,2,1,4,1,1,1
259374392,15154129,-33.9385715,18.8741563,-1.6826752,0.8700599,-0.46487993,-0.23954648,0.1367903,0.0,0.07558015,0.019331846,0.018955203,0.0053812517,-1.5294534,0.020032808,-0.32580173,0.1206939,-0.117357545,-0.6558725,-2.6784906,0.0010599645,131.77486,0.1,0.29940766,0.4355721,0.13967732,0.09100001,inf,inf,inf,inf,1,1,1,1,2,0,2,1,4,1,1,1
259384397,15154129,-33.9385715,18.8741563,-1.6818933,0.87023115,-0.465629,-0.23954648,0.1367903,0.0,0.07916855,0.02111889,0.01674845,0.0023505043,-1.5294534,0.020032808,-0.32580173,0.18526226,0.09882236,-1.0154933,-2.6770566,0.0010599645,131.77486,0.1,0.30030644,0.43613476,0.14012493,0.09112267,inf,inf,inf,inf,1,1,1,1,2,0,2,1,4,1,1,1
259394401,15154129,-33.9385715,18.8741563,-1.6810782,0.8704145,-0.46636435,-0.23954648,0.1367903,0.0,0.08228791,0.02282135,0.013978254,-0.0012016989,-1.5294534,0.020032808,-0.32580173,0.15972783,0.31705487,-1.3632097,-2.6751652,0.0010599645,131.77486,0.1,0.30121058,0.43669885,0.1405702,0.09124522,inf,inf,inf,inf,1,1,1,1,2,0,2,1,4,1,1,1
259404448,15154129,-33.9385715,18.8741563,-1.6802286,0.87061703,-0.46709555,-0.23954648,0.1367903,0.0,0.085484065,0.025115812,0.010813065,-0.005108543,-1.5294534,0.020032808,-0.32580173,0.21003667,0.46267882,-1.509907,-2.6729736,0.0010599645,131.77486,0.1,0.30212003,0.43726435,0.14101441,0.09136777,inf,inf,inf,inf,1,1,1,1,2,0,2,1,4,1,1,1
259414408,15154129,-33.9385715,18.8741563,-1.6797836,0.87105125,-0.46777183,-0.23954648,0.1367903,0.0,0.08899936,0.028119288,0.0086713685,-0.007899263,-1.5294534,0.020032808,-0.32580173,0.29810885,0.5232484,-1.4688134,-2.6706512,0.0010599645,131.77486,0.1,0.28567785,0.43447083,0.132261,0.08965405,inf,inf,inf,inf,1,1,1,1,2,0,2,1,4,1,1,1
259424416,15154129,-33.9385715,18.8741563,-1.6792846,0.87150836,-0.46844235,-0.23954648,0.1367903,0.0,0.092987314,0.030926917,0.006758633,-0.010425914,-1.5294534,0.020032808,-0.32580173,0.38075545,0.5737559,-1.385103,-2.6682777,0.0010599645,131.77486,0.1,0.2864931,0.43502086,0.13268675,0.089777045,inf,inf,inf,inf,1,1,1,1,2,0,2,1,4,1,1,1
259434419,15154129,-33.9385715,18.8741563,-1.678737,0.8719897,-0.46910483,-0.23954648,0.1367903,0.0,0.096723534,0.033924837,0.0058643487,-0.011900298,-1.5294534,0.020032808,-0.32580173,0.454289,0.56480867,-1.1171715,-2.6658998,0.0010599645,131.77486,0.1,0.2873134,0.4355723,0.13311243,0.0899002,inf,inf,inf,inf,1,1,1,1,2,0,2,1,4,1,1,1
259444425,15154129,-33.9385715,18.8741563,-1.6781415,0.87249076,-0.46999624,-0.23954648,0.1367903,0.0,0.1005932,0.036018368,0.005476062,-0.013078867,-1.5294534,0.020032808,-0.32580173,0.57397324,0.52169406,-0.7565431,-2.6636932,0.0010599645,131.77486,0.1,0.2881388,0.4327782,0.13354103,0.08976268,inf,inf,inf,inf,1,1,1,1,2,0,2,1,4,1,1,1
259454429,15154129,-33.9385715,18.8741563,-1.6774985,0.8730073,-0.47086632,-0.23954648,0.1367903,0.0,0.10361876,0.037926808,0.0049157008,-0.014387414,-1.5294534,0.020032808,-0.32580173,0.43163148,0.4753894,-0.46944863,-2.6618562,0.0010599645,131.77486,0.1,0.2889693,0.4333282,0.13397145,0.089886025,inf,inf,inf,inf,1,1,1,1,2,0,2,1,4,1,1,1
259464434,15154129,-33.9385715,18.8741563,-1.6768146,0.87353235,-0.4717169,-0.23954648,0.1367903,0.0,0.10651206,0.03891042,0.004241378,-0.015769152,-1.5294534,0.020032808,-0.32580173,0.41999263,0.41471493,-0.18620063,-2.660398,0.0010599645,131.77486,0.1,0.28980494,0.4338796,0.13440636,0.09000928,inf,inf,inf,inf,1,1,1,1,2,0,2,1,4,1,1,1
259474438,15154129,-33.9385715,18.8741563,-1.676092,0.8740543,-0.4725538,-0.23954648,0.1367903,0.0,0.10847668,0.03872622,0.0023172265,-0.018361675,-1.5294534,0.020032808,-0.32580173,0.17112292,0.36551166,-0.10122133,-2.6591823,0.0010599645,131.77486,0.1,0.2906457,0.43443245,0.13484856,0.090132445,inf,inf,inf,inf,1,1,1,1,2,0,2,1,4,1,1,1
259484443,15154129,-33.9385715,18.8741563,-1.6753333,0.8745707,-0.47338384,-0.23954648,0.1367903,0.0,0.11022069,0.03819783,4.297916e-05,-0.021266442,-1.5294534,0.020032808,-0.32580173,-0.13698272,0.19992493,0.0041927695,-2.65809,0.0010599645,131.77486,0.1,0.2914917,0.43498668,0.13529132,0.09025553,inf,inf,inf,inf,1,1,1,1,2,0,2,1,4,1,1,1
259494447,15154129,-33.9385715,18.8741563,-1.6745387,0.87508124,-0.47421145,-0.23954648,0.1367903,0.0,0.11280265,0.038473714,-0.0020234524,-0.023927193,-1.5294534,0.020032808,-0.32580173,-0.23362462,0.2510214,0.25606543,-2.6570766,0.0010599645,131.77486,0.1,0.29234284,0.43554232,0.1357382,0.09037847,inf,inf,inf,inf,1,1,1,1,2,0,2,1,4,1,1,1
259504451,15154129,-33.9385715,18.8741563,-1.6737078,0.87558943,-0.47503164,-0.23954648,0.1367903,0.0,0.11498847,0.039591238,-0.0034917183,-0.025954839,-1.5294534,0.020032808,-0.32580173,-0.40592125,0.5006414,0.4664202,-2.656102,0.0010599645,131.77486,0.1,0.29319927,0.43609938,0.13618542,0.09050137,inf,inf,inf,inf,1,1,1,1,2,0,2,1,4,1,1,1
259514456,15154129,-33.9385715,18.8741563,-1.6728433,0.87610656,-0.4758366,-0.23954648,0.1367903,0.0,0.11757069,0.04157676,-0.0043056533,-0.027294602,-1.5294534,0.020032808,-0.32580173,-0.39869064,0.64794976,0.56318665,-2.6552308,0.0010599645,131.77486,0.1,0.2940609,0.43665785,0.13663241,0.09062427,inf,inf,inf,inf,1,1,1,1,2,0,2,1,4,1,1,1
259524461,15154129,-33.9385715,18.8741563,-1.6719455,0.87664074,-0.476619,-0.23954648,0.1367903,0.0,0.12040052,0.04319988,-0.004755805,-0.028238289,-1.5294534,0.020032808,-0.32580173,-0.29316467,0.45817044,0.49157506,-2.654553,0.0010599645,131.77486,0.1,0.29492778,0.43721774,0.13708183,0.090747155,inf,inf,inf,inf,1,1,1,1,2,0,2,1,4,1,1,1
259534467,15154129,-33.9385715,18.8741563,-1.6710131,0.87719786,-0.47765374,-0.23954648,0.1367903,0.0,0.12325745,0.04574501,-0.0059887767,-0.03020906,-1.5294534,0.020032808,-0.32580173,-0.1990663,0.2956373,0.25279835,-2.6540632,0.0010599645,131.77486,0.1,0.29579994,0.4343942,0.13753164,0.090601966,inf,inf,inf,inf,1,1,1,1,2,0,2,1,4,1,1,1
259544470,15154129,-33.9385715,18.8741563,-1.6700512,0.8777799,-0.47866502,-0.23954648,0.1367903,0.0,0.12556738,0.04801575,-0.007353739,-0.032269746,-1.5294534,0.020032808,-0.32580173,-0.09954108,0.06535032,0.11159984,-2.6536343,0.0010599645,131.77486,0.1,0.29667735,0.4349526,0.13798438,0.09072504,inf,inf,inf,inf,1,1,1,1,2,0,2,1,4,1,1,1
259554474,15154129,-33.9385715,18.8741563,-1.6690571,0.87838244,-0.47964942,-0.23954648,0.1367903,0.0,0.12778863,0.05031682,-0.008446171,-0.034017257,-1.5294534,0.020032808,-0.32580173,-0.1720081,0.017236814,-0.1545201,-2.653072,0.0010599645,131.77486,0.1,0.2975601,0.4355124,0.13843839,0.09084811,inf,inf,inf,inf,1,1,1,1,2,0,2,1,4,1,1,1
259564479,15154129,-33.9385715,18.8741563,-1.6680373,0.8790069,-0.48060405,-0.23954648,0.1367903,0.0,0.12984394,0.053146984,-0.008345381,-0.03453256,-1.5294534,0.020032808,-0.32580173,-0.054867957,0.08559298,-0.21082991,-2.6523256,0.0010599645,131.77486,0.1,0.29844815,0.43607363,0.13889524,0.09097111,inf,inf,inf,inf,1,1,1,1,2,0,2,1,4,1,1,1
259574484,15154129,-33.9385715,18.8741563,-1.6669966,0.87964994,-0.48152778,-0.23954648,0.1367903,0.0,0.13137943,0.055718303,-0.008206325,-0.034971714,-1.5294534,0.020032808,-0.32580173,0.07490971,0.28094697,-0.21615933,-2.651294,0.0010599645,131.77486,0.1,0.2993415,0.43663627,0.13935593,0.09109402,inf,inf,inf,inf,1,1,1,1,2,0,2,1,4,1,1,1
259584488,15154129,-33.9385715,18.8741563,-1.665937,0.8803068,-0.48242205,-0.23954648,0.1367903,0.0,0.1322078,0.058867402,-0.007641286,-0.034948803,-1.5294534,0.020032808,-0.32580173,-0.008900109,0.8065893,-0.08286969,-2.6500409,0.0010599645,131.77486,0.1,0.30024025,0.43720037,0.13981068,0.09121692,inf,inf,inf,inf,1,1,1,1,2,0,2,1,4,1,1,1
259594493,15154129,-33.9385715,18.8741563,-1.6648635,0.8809822,-0.48328146,-0.23954648,0.1367903,0.0,0.13318627,0.061411135,-0.006611744,-0.034426328,-1.5294534,0.020032808,-0.32580173,0.105788626,1.0357287,-0.0104415165,-2.6487265,0.0010599645,131.77486,0.1,0.30114433,0.43776587,0.14026707,0.09133989,inf,inf,inf,inf,1,1,1,1,2,0,2,1,4,1,1,1
259604497,15154129,-33.9385715,18.8741563,-1.6637763,0.8816684,-0.4841067,-0.23954648,0.1367903,0.0,0.13339305,0.06289146,-0.0060021495,-0.034290396,-1.5294534,0.020032808,-0.32580173,-0.011445422,1.1872802,-0.032242388,-2.6473513,0.0010599645,131.77486,0.1,0.30205375,0.4383328,0.14072035,0.0914628,inf,inf,inf,inf,1,1,1,1,2,0,2,1,4,1,1,1
259614501,15154129,-33.9385715,18.8741563,-1.6629975,0.8824863,-0.48525715,-0.23954648,0.1367903,0.0,0.1338976,0.063158005,-0.005882001,-0.034977756,-1.5294534,0.020032808,-0.32580173,0.06921226,1.1854197,-0.08926482,-2.6458776,0.0010599645,131.77486,0.1,0.28561738,0.4355157,0.13201575,0.0897438,inf,inf,inf,inf,1,1,1,1,2,0,2,1,4,1,1,1
259624529,15154129,-33.9385715,18.8741563,-1.6621945,0.8832959,-0.48677096,-0.23954648,0.1367903,0.0,0.13479565,0.060442176,-0.0060999813,-0.03636218,-1.5294534,0.020032808,-0.32580173,0.19814296,0.5356819,-0.22791174,-2.6441007,0.0010599645,131.77486,0.1,0.28643295,0.4327215,0.13245517,0.08960725,inf,inf,inf,inf,1,1,1,1,2,0,2,1,4,1,1,1
259634511,15154129,-33.9385715,18.8741563,-1.6613739,0.8840854,-0.48823294,-0.23954648,0.1367903,0.0,0.13562165,0.05843495,-0.0060748537,-0.03744036,-1.5294534,0.020032808,-0.32580173,0.20992674,0.08689062,-0.30373874,-2.6419005,0.0010599645,131.77486,0.1,0.28725362,0.43327007,0.1328957,0.08973063,inf,inf,inf,inf,1,1,1,1,2,0,2,1,4,1,1,1
259644516,15154129,-33.9385715,18.8741563,-1.6605264,0.8848652,-0.48964855,-0.23954648,0.1367903,0.0,0.13662474,0.058164608,-0.0050563742,-0.03746443,-1.5294534,0.020032808,-0.32580173,0.24689342,-0.0011377141,0.07995197,-2.63931,0.0010599645,131.77486,0.1,0.2880794,0.43382004,0.13334122,0.08985401,inf,inf,inf,inf,1,1,1,1,2,0,2,1,4,1,1,1
259654521,15154129,-33.9385715,18.8741563,-1.659654,0.8856311,-0.49101827,-0.23954648,0.1367903,0.0,0.13746007,0.058661465,-0.004523694,-0.03791571,-1.5294534,0.020032808,-0.32580173,0.17752807,0.43061253,0.38461402,-2.6364708,0.0010599645,131.77486,0.1,0.28891036,0.4343714,0.13378878,0.089977376,inf,inf,inf,inf,1,1,1,1,2,0,2,1,4,1,1,1
259664525,15154129,-33.9385715,18.8741563,-1.6587595,0.886395,-0.4923424,-0.23954648,0.1367903,0.0,0.1371927,0.05876793,-0.00535694,-0.03967609,-1.5294534,0.020032808,-0.32580173,-0.15708515,0.35314366,0.19980402,-2.6339355,0.0010599645,131.77486,0.1,0.2897465,0.4349242,0.13423645,0.090100706,inf,inf,inf,inf,1,1,1,1,2,0,2,1,4,1,1,1
259674530,15154129,-33.9385715,18.8741563,-1.6578537,0.88716036,-0.49362826,-0.23954648,0.1367903,0.0,0.13721828,0.05635156,-0.006875922,-0.042067893,-1.5294534,0.020032808,-0.32580173,-0.0953668,-0.6457602,-0.107077375,-2.631689,0.0010599645,131.77486,0.1,0.29058778,0.4354784,0.13468286,0.09022385,inf,inf,inf,inf,1,1,1,1,2,0,2,1,4,1,1,1
259684534,15154129,-33.9385715,18.8741563,-1.6569355,0.88791525,-0.49487615,-0.23954648,0.1367903,0.0,0.1374564,0.05381502,-0.0068894112,-0.042901713,-1.5294534,0.020032808,-0.32580173,-0.019196192,-1.4478105,-0.071357936,-2.62939,0.0010599645,131.77486,0.1,0.29143426,0.43603396,0.13512784,0.090346895,inf,inf,inf,inf,1,1,1,1,2,0,2,1,4,1,1,1
259694539,15154129,-33.9385715,18.8741563,-1.6560024,0.88865775,-0.49608436,-0.23954648,0.1367903,0.0,0.1375361,0.05405444,-0.0055727093,-0.042355023,-1.5294534,0.020032808,-0.32580173,-0.059389506,-1.347616,0.37360498,-2.6268735,0.0010599645,131.77486,0.1,0.29228592,0.436591,0.13557225,0.09047,inf,inf,inf,inf,1,1,1,1,2,0,2,1,4,1,1,1
259704544,15154129,-33.9385715,18.8741563,-1.6550455,0.8893869,-0.4975328,-0.23954648,0.1367903,0.0,0.13835803,0.05540718,-0.004333706,-0.042125802,-1.5294534,0.020032808,-0.32580173,-0.27657706,-0.5955994,0.6371175,-2.624303,0.0010599645,131.77486,0.1,0.29314277,0.43377903,0.13602026,0.090327404,inf,inf,inf,inf,1,1,1,1,2,0,2,1,4,1,1,1
259714548,15154129,-33.9385715,18.8741563,-1.6540729,0.8901094,-0.49892753,-0.23954648,0.1367903,0.0,0.1373098,0.056084424,-0.005468817,-0.044211213,-1.5294534,0.020032808,-0.32580173,-0.6700374,-0.21550968,0.19290382,-2.621929,0.0010599645,131.77486,0.1,0.29400486,0.43433458,0.13646933,0.0904504,inf,inf,inf,inf,1,1,1,1,2,0,2,1,4,1,1,1
259724604,15154129,-33.9385715,18.8741563,-1.6530921,0.89082974,-0.5002795,-0.23954648,0.1367903,0.0,0.13646919,0.05533832,-0.006425508,-0.04606108,-1.5294534,0.020032808,-0.32580173,-0.60766125,-0.37962994,-0.09425416,-2.6197684,0.0010599645,131.77486,0.1,0.29487216,0.43489155,0.13691825,0.090573356,inf,inf,inf,inf,1,1,1,1,2,0,2,1,4,1,1,1
259734586,15154129,-33.9385715,18.8741563,-1.6521143,0.8915413,-0.50159097,-0.23954648,0.1367903,0.0,0.13782771,0.055977162,-0.0052685137,-0.04574175,-1.5294534,0.020032808,-0.32580173,-0.12425617,-0.28095266,0.34030715,-2.6176326,0.0010599645,131.77486,0.1,0.2957447,0.4354499,0.13736366,0.090696186,inf,inf,inf,inf,1,1,1,1,2,0,2,1,4,1,1,1
259744569,15154129,-33.9385715,18.8741563,-1.6511118,0.89224744,-0.5028574,-0.23954648,0.1367903,0.0,0.14002387,0.056801844,-0.0038221567,-0.045080166,-1.5294534,0.020032808,-0.32580173,0.13196029,0.055389706,0.78858185,-2.6153004,0.0010599645,131.77486,0.1,0.29662248,0.4360097,0.1378096,0.09081897,inf,inf,inf,inf,1,1,1,1,2,0,2,1,4,1,1,1
259754566,15154129,-33.9385715,18.8741563,-1.6500897,0.89295214,-0.5040787,-0.23954648,0.1367903,0.0,0.13935682,0.05560657,-0.0048810127,-0.046872944,-1.5294534,0.020032808,-0.32580173,-0.14147219,-0.3021248,0.4511661,-2.613034,0.0010599645,131.77486,0.1,0.29750553,0.43657094,0.13825473,0.09094155,inf,inf,inf,inf,1,1,1,1,2,0,2,1,4,1,1,1
259764570,15154129,-33.9385715,18.8741563,-1.6490624,0.8936548,-0.5052582,-0.23954648,0.1367903,0.0,0.13863467,0.053357355,-0.0057461862,-0.04842306,-1.5294534,0.020032808,-0.32580173,-0.18197009,-1.1498203,0.0012941632,-2.6108902,0.0010599645,131.77486,0.1,0.29839382,0.43713358,0.13869886,0.0910642,inf,inf,inf,inf,1,1,1,1,2,0,2,1,4,1,1,1
259774575,15154129,-33.9385715,18.8741563,-1.648018,0.89435464,-0.5063876,-0.23954648,0.1367903,0.0,0.13997024,0.0543059,-0.003670109,-0.046984635,-1.5294534,0.020032808,-0.32580173,-0.1278389,-1.1090585,0.075688824,-2.6085923,0.0010599645,131.77486,0.1,0.29928735,0.43769765,0.139145,0.09118688,inf,inf,inf,inf,1,1,1,1,2,0,2,1,4,1,1,1
259784585,15154129,-33.9385715,18.8741563,-1.6469637,0.89505327,-0.5074751,-0.23954648,0.1367903,0.0,0.1393118,0.05850261,-0.0018626174,-0.045769494,-1.5294534,0.020032808,-0.32580173,-0.16909456,0.18003798,0.6295335,-2.6061795,0.0010599645,131.77486,0.1,0.30018616,0.43826315,0.13959311,0.09130977,inf,inf,inf,inf,1,1,1,1,2,0,2,1,4,1,1,1
259794584,15154129,-33.9385715,18.8741563,-1.6459081,0.8957581,-0.508813,-0.23954648,0.1367903,0.0,0.13927224,0.060950074,-0.0022934133,-0.04704251,-1.5294534,0.020032808,-0.32580173,0.0074174083,0.9274205,0.49470168,-2.603911,0.0010599645,131.77486,0.1,0.30109027,0.43542096,0.14004353,0.091159865,inf,inf,inf,inf,1,1,1,1,2,0,2,1,4,1,1,1
259804588,15154129,-33.9385715,18.8741563,-1.6448298,0.8964779,-0.5100923,-0.23954648,0.1367903,0.0,0.14091049,0.060029056,-0.0029082058,-0.048444316,-1.5294534,0.020032808,-0.32580173,-0.0021776452,0.15978587,-0.27519804,-2.601768,0.0010599645,131.77486,0.1,0.3019997,0.4359849,0.14049222,0.09128318,inf,inf,inf,inf,1,1,1,1,2,0,2,1,4,1,1,1
259814593,15154129,-33.9385715,18.8741563,-1.6437485,0.8974473,-0.5113075,-0.23954648,0.1367903,0.0,0.14063871,0.060779154,-0.0030322424,-0.04928019,-1.5294534,0.020032808,-0.32580173,-0.12338498,-0.69372493,-0.33666533,-2.5996819,0.0010599645,131.77486,0.1,0.2855419,0.43321788,0.13180833,0.089574724,inf,inf,inf,inf,1,1,1,1,2,0,2,1,4,1,1,1
259824598,15154129,-33.9385715,18.8741563,-1.6426513,0.89842415,-0.5124853,-0.23954648,0.1367903,0.0,0.14298713,0.06392986,-0.00047949745,-0.047389317,-1.5294534,0.020032808,-0.32580173,0.3007543,-0.39813748,0.5918907,-2.597557,0.0010599645,131.77486,0.1,0.28635758,0.43376642,0.1322441,0.08969788,inf,inf,inf,inf,1,1,1,1,2,0,2,1,4,1,1,1
260394857,15154129,-33.9385715,18.8741563,-1.5527385,0.95383334,-0.58693427,-0.23954648,0.1367903,0.0,0.20811002,0.11467024,-0.010265834,-0.0895607,-1.5294534,0.020032808,-0.32580173,-0.1456518,0.42760184,-1.0540346,-2.4602447,0.0010599645,131.77486,0.1,0.30082083,0.43860954,0.1394595,0.09144213,inf,inf,inf,inf,1,1,1,1,2,0,2,1,4,1,1,1
260404864,15154129,-33.9385715,18.8741563,-1.5506451,0.95516497,-0.5891037,-0.23954648,0.1367903,0.0,0.21785146,0.12050096,0.0032253915,-0.077354565,-1.5294534,0.020032808,-0.32580173,1.1739217,0.80000836,1.8765643,-2.4570847,0.0010599645,131.77486,0.1,0.3017288,0.4357606,0.1399062,0.09129108,inf,inf,inf,inf,1,1,1,1,2,0,2,1,4,1,1,1
260414867,15154129,-33.9385715,18.8741563,-1.5490843,0.95668435,-0.5908982,-0.23954648,0.1367903,0.0,0.21330725,0.12551416,0.001024094,-0.080535874,-1.5294534,0.020032808,-0.32580173,-0.64805305,0.14718403,-0.97607315,-2.4539163,0.0010599645,131.77486,0.1,0.2852909,0.43299714,0.13130978,0.08958193,inf,inf,inf,inf,1,1,1,1,2,0,2,1,4,1,1,1
260424872,15154129,-33.9385715,18.8741563,-1.5475157,0.9582385,-0.592684,-0.23954648,0.1367903,0.0,0.218157,0.13224007,-0.001974486,-0.08443861,-1.5294534,0.020032808,-0.32580173,0.8017483,0.8887777,0.1536474,-2.4505727,0.0010599645,131.77486,0.1,0.28610578,0.4335455,0.13175404,0.08970481,inf,inf,inf,inf,1,1,1,1,2,0,2,1,4,1,1,1
260434877,15154129,-33.9385715,18.8741563,-1.5458864,0.9598349,-0.5943817,-0.23954648,0.1367903,0.0,0.21888418,0.13334697,0.0039325766,-0.07936253,-1.5294534,0.020032808,-0.32580173,-0.17852332,-0.18137997,0.6730701,-2.4472961,0.0010599645,131.77486,0.1,0.28692567,0.43409523,0.13219857,0.08982849,inf,inf,inf,inf,1,1,1,1,2,0,2,1,4,1,1,1
260514912,15154129,-33.9385715,18.8741563,-1.5314639,0.9732595,-0.6090171,-0.23954648,0.1367903,0.0,0.23926897,0.15336326,0.0006368095,-0.09046445,-1.5294534,0.020032808,-0.32580173,0.5063897,0.123185344,-0.7749566,-2.4176755,0.0010599645,131.77486,0.1007849,0.29366767,0.4351672,0.13588966,0.09055035,inf,inf,inf,inf,1,1,1,1,2,0,2,1,4,1,1,1
260524923,15154129,-33.9385715,18.8741563,-1.529462,0.9749883,-0.6110056,-0.23954648,0.1367903,0.0,0.24641626,0.15335748,0.009149715,-0.0830135,-1.5294534,0.020032808,-0.32580173,0.89283234,-0.20869109,1.5775998,-2.4137866,0.0010599645,131.77486,0.10277343,0.29453352,0.43572533,0.13636726,0.09067324,inf,inf,inf,inf,1,1,1,1,2,0,2,1,4,1,1,1
260534922,15154129,-33.9385715,18.8741563,-1.5273837,0.97670555,-0.61278856,-0.23954648,0.1367903,0.0,0.2513751,0.15475236,0.02084385,-0.07229765,-1.5294534,0.020032808,-0.32580173,0.41976804,0.3256899,0.5952733,-2.4099913,0.0010599645,131.77486,0.10455638,0.2954046,0.43628493,0.13683785,0.09079639,inf,inf,inf,inf,1,1,1,1,2,0,2,1,4,1,1,1
260544936,15154129,-33.9385715,18.8741563,-1.5252882,0.9784306,-0.61449045,-0.23954648,0.1367903,0.0,0.24733639,0.15355502,0.014150832,-0.079888314,-1.5294534,0.020032808,-0.32580173,-0.32627597,-0.377328,-0.65807307,-2.4060726,0.0010599645,131.77486,0.10625827,0.2962809,0.43684593,0.13733043,0.09091921,inf,inf,inf,inf,1,1,1,1,2,0,2,1,4,1,1,1
260554942,15154129,-33.9385715,18.8741563,-1.5231824,0.98016155,-0.61616415,-0.23954648,0.1367903,0.0,0.25107205,0.15995204,0.013333401,-0.081526175,-1.5294534,0.020032808,-0.32580173,0.35374695,0.8845967,-0.02754672,-2.4021685,0.0010599645,131.77486,0.10793197,0.29716244,0.43740836,0.1377758,0.09104248,inf,inf,inf,inf,1,1,1,1,2,0,2,1,4,1,1,1
260564935,15154129,-33.9385715,18.8741563,-1.5210384,0.98192036,-0.6177965,-0.23954648,0.1367903,0.0,0.25249246,0.15866184,0.008657181,-0.08694836,-1.5294534,0.020032808,-0.32580173,-0.035749294,-0.31094962,-0.5603103,-2.3983176,0.0010599645,131.77486,0.109564304,0.2980491,0.43797222,0.1382964,0.091164336,inf,inf,inf,inf,1,1,1,1,2,0,2,1,4,1,1,1
260574940,15154129,-33.9385715,18.8741563,-1.5188556,0.9836641,-0.6202447,-0.23954648,0.1367903,0.0,0.25588658,0.15911452,0.012084387,-0.085063584,-1.5294534,0.020032808,-0.32580173,0.118922845,0.17290705,0.77834487,-2.39488,0.0010599645,131.77486,0.112012506,0.29894117,0.43513516,0.13872918,0.091016576,inf,inf,inf,inf,1,1,1,1,2,0,2,1,4,1,1,1
260584945,15154129,-33.9385715,18.8741563,-1.5166358,0.985395,-0.622496,-0.23954648,0.1367903,0.0,0.25871,0.1572418,0.028016457,-0.07056725,-1.5294534,0.020032808,-0.32580173,0.23102018,-0.07632889,1.6183491,-2.3911924,0.0010599645,131.77486,0.11426383,0.2998383,0.43569747,0.13922048,0.09113859,inf,inf,inf,inf,1,1,1,1,2,0,2,1,4,1,1,1
260594984,15154129,-33.9385715,18.8741563,-1.5143818,0.9871371,-0.62458867,-0.23954648,0.1367903,0.0,0.25698313,0.1607722,0.022226961,-0.07768975,-1.5294534,0.020032808,-0.32580173,-0.591843,0.34911546,-1.3163222,-2.3875446,0.0010599645,131.77486,0.11635649,0.30074075,0.4362612,0.13971815,0.091261744,inf,inf,inf,inf,1,1,1,1,2,0,2,1,4,1,1,1
260604953,15154129,-33.9385715,18.8741563,-1.5121794,0.988865,-0.6267126,-0.23954648,0.1367903,0.0,0.2533376,0.15815072,0.011758689,-0.0893924,-1.5294534,0.020032808,-0.32580173,-0.12355641,-0.19413933,-0.47264075,-2.383886,0.0010599645,131.77486,0.118480444,0.30164856,0.43682638,0.1401836,0.091385044,inf,inf,inf,inf,1,1,1,1,2,0,2,1,4,1,1,1
260614958,15154129,-33.9385715,18.8741563,-1.5104054,0.9908563,-0.62871844,-0.23954648,0.1367903,0.0,0.25781077,0.16212182,0.016003408,-0.086228795,-1.5294534,0.020032808,-0.32580173,0.41647118,0.2972298,0.56875473,-2.3802319,0.0010599645,131.77486,0.12048626,0.28525332,0.43403953,0.13157307,0.08967039,inf,inf,inf,inf,1,1,1,1,2,0,2,1,4,1,1,1
260624962,15154129,-33.9385715,18.8741563,-1.5085837,0.9928437,-0.6306137,-0.23954648,0.1367903,0.0,0.25818,0.16056855,0.017178755,-0.08604602,-1.5294534,0.020032808,-0.32580173,-0.021357214,-0.16407132,-0.018001083,-2.3766732,0.0010599645,131.77486,0.12238151,0.28606775,0.43458924,0.13206957,0.08979387,inf,inf,inf,inf,1,1,1,1,2,0,2,1,4,1,1,1
260635011,15154129,-33.9385715,18.8741563,-1.5067236,0.99481887,-0.6324481,-0.23954648,0.1367903,0.0,0.25823513,0.16066399,0.015025583,-0.08910653,-1.5294534,0.020032808,-0.32580173,-0.1325275,-0.025000567,0.02045621,-2.373239,0.0010599645,131.77486,0.1242159,0.28688735,0.43514034,0.1325641,0.08991713,inf,inf,inf,inf,1,1,1,1,2,0,2,1,4,1,1,1
260644989,15154129,-33.9385715,18.8741563,-1.5048523,0.9967435,-0.63416505,-0.23954648,0.1367903,0.0,0.2608198,0.15644065,0.026927788,-0.07802997,-1.5294534,0.020032808,-0.32580173,0.35286403,-0.19541575,1.4982196,-2.369548,0.0010599645,131.77486,0.12593287,0.28771207,0.43569285,0.13301179,0.0900411,inf,inf,inf,inf,1,1,1,1,2,0,2,1,4,1,1,1
260654975,15154129,-33.9385715,18.8741563,-1.5029349,0.9986683,-0.63668203,-0.23954648,0.1367903,0.0,0.26030788,0.16218793,0.02630303,-0.08035732,-1.5294534,0.020032808,-0.32580173,-0.4836632,0.6845224,-0.6443222,-2.3656616,0.0010599645,131.77486,0.12844986,0.28854173,0.43289703,0.13349645,0.089903176,inf,inf,inf,inf,1,1,1,1,2,0,2,1,4,1,1,1
260664981,15154129,-33.9385715,18.8741563,-1.5010401,1.0006042,-0.6391687,-0.23954648,0.1367903,0.0,0.25365847,0.15902595,0.016339205,-0.091906264,-1.5294534,0.020032808,-0.32580173,-0.5769156,-0.4525922,-0.8832514,-2.362004,0.0010599645,131.77486,0.1309365,0.28937653,0.4334481,0.13398202,0.090027116,inf,inf,inf,inf,1,1,1,1,2,0,2,1,4,1,1,1
260674989,15154129,-33.9385715,18.8741563,-1.4991513,1.0025072,-0.641634,-0.23954648,0.1367903,0.0,0.25429633,0.15907787,0.0117147155,-0.09800285,-1.5294534,0.020032808,-0.32580173,0.008150021,0.10653434,-0.29470554,-2.358335,0.0010599645,131.77486,0.13340181,0.29021648,0.43400058,0.13446079,0.09015055,inf,inf,inf,inf,1,1,1,1,2,0,2,1,4,1,1,1
260684991,15154129,-33.9385715,18.8741563,-1.4972347,1.0043968,-0.6440075,-0.23954648,0.1367903,0.0,0.25656393,0.15846412,0.015872657,-0.09520804,-1.5294534,0.020032808,-0.32580173,0.36124572,0.0076694735,0.53709537,-2.3540406,0.0010599645,131.77486,0.13577533,0.29106152,0.43455446,0.13498066,0.09027432,inf,inf,inf,inf,1,1,1,1,2,0,2,1,4,1,1,1
260694999,15154129,-33.9385715,18.8741563,-1.4952669,1.0062885,-0.6462951,-0.23954648,0.1367903,0.0,0.25922462,0.16097258,0.007630546,-0.10470883,-1.5294534,0.020032808,-0.32580173,0.16412647,0.22639015,-1.3466934,-2.349566,0.0010599645,131.77486,0.1380629,0.29191184,0.43510976,0.13544135,0.09039896,inf,inf,inf,inf,1,1,1,1,2,0,2,1,4,1,1,1
260705000,15154129,-33.9385715,18.8741563,-1.4932926,1.0081612,-0.6486073,-0.23954648,0.1367903,0.0,0.2557143,0.15528443,-0.0011843429,-0.11468194,-1.5294534,0.020032808,-0.32580173,-0.23959146,-0.9067513,-0.40153596,-2.345389,0.0010599645,131.77486,0.14037514,0.29276726,0.4356665,0.13589199,0.090523124,inf,inf,inf,inf,1,1,1,1,2,0,2,1,4,1,1,1
260715003,15154129,-33.9385715,18.8741563,-1.4913162,1.0099593,-0.6508547,-0.23954648,0.1367903,0.0,0.256254,0.15054864,0.0014567242,-0.11310262,-1.5294534,0.020032808,-0.32580173,0.21548432,-0.30111173,0.24534835,-2.3412242,0.0010599645,131.77486,0.14262253,0.2936277,0.43622467,0.13640974,0.0906461,inf,inf,inf,inf,1,1,1,1,2,0,2,1,4,1,1,1
260725008,15154129,-33.9385715,18.8741563,-1.4893147,1.0117215,-0.6530009,-0.23954648,0.1367903,0.0,0.25628307,0.14951201,0.0033777268,-0.112150304,-1.5294534,0.020032808,-0.32580173,-0.025812235,-0.0039326693,0.2692152,-2.3369262,0.0010599645,131.77486,0.14476871,0.2944935,0.43678424,0.13691027,0.09076934,inf,inf,inf,inf,1,1,1,1,2,0,2,1,4,1,1,1
260735012,15154129,-33.9385715,18.8741563,-1.4873081,1.0135019,-0.65508324,-0.23954648,0.1367903,0.0,0.2543635,0.15668446,-0.0033607134,-0.11976853,-1.5294534,0.020032808,-0.32580173,-0.15610911,0.93934405,-1.0126511,-2.3327296,0.0010599645,131.77486,0.14685106,0.29536453,0.4373452,0.13742475,0.09089313,inf,inf,inf,inf,1,1,1,1,2,0,2,1,4,1,1,1
260745017,15154129,-33.9385715,18.8741563,-1.4853015,1.0153236,-0.6580484,-0.23954648,0.1367903,0.0,0.2541208,0.15606005,-0.011782389,-0.12985338,-1.5294534,0.020032808,-0.32580173,0.19654767,-0.49600488,-0.3237592,-2.3284676,0.0010599645,131.77486,0.14981622,0.29624087,0.4345198,0.1379123,0.09074803,inf,inf,inf,inf,1,1,1,1,2,0,2,1,4,1,1,1
260755022,15154129,-33.9385715,18.8741563,-1.4832696,1.0170934,-0.6609242,-0.23954648,0.1367903,0.0,0.2544148,0.15138288,-0.008767052,-0.12838084,-1.5294534,0.020032808,-0.32580173,-0.13097613,-0.21495321,0.2588263,-2.3241153,0.0010599645,131.77486,0.15269202,0.29712245,0.43507928,0.13835578,0.090872325,inf,inf,inf,inf,1,1,1,1,2,0,2,1,4,1,1,1
260765027,15154129,-33.9385715,18.8741563,-1.4812595,1.0188372,-0.66370505,-0.23954648,0.1367903,0.0,0.24785246,0.15164937,-0.01228568,-0.13332643,-1.5294534,0.020032808,-0.32580173,-0.6258735,0.10757108,-0.3787763,-2.3196788,0.0010599645,131.77486,0.15547287,0.2980091,0.43564016,0.13888173,0.090995096,inf,inf,inf,inf,1,1,1,1,2,0,2,1,4,1,1,1
260775032,15154129,-33.9385715,18.8741563,-1.4792826,1.0206121,-0.66645235,-0.23954648,0.1367903,0.0,0.24532753,0.15909813,-0.021633115,-0.14398944,-1.5294534,0.020032808,-0.32580173,-0.118085995,0.80934155,-1.0273664,-2.3153973,0.0010599645,131.77486,0.15822017,0.29890117,0.4362025,0.13942301,0.09111827,inf,inf,inf,inf,1,1,1,1,2,0,2,1,4,1,1,1
260785036,15154129,-33.9385715,18.8741563,-1.4773259,1.0224,-0.66920984,-0.23954648,0.1367903,0.0,0.24006602,0.1524761,-0.030312356,-0.1538774,-1.5294534,0.020032808,-0.32580173,-0.5963218,-1.2669227,-0.4724567,-2.3109798,0.0010599645,131.77486,0.16097766,0.29979873,0.43676627,0.13991591,0.091242015,inf,inf,inf,inf,1,1,1,1,2,0,2,1,4,1,1,1
260795040,15154129,-33.9385715,18.8741563,-1.4753969,1.0241071,-0.6718969,-0.23954648,0.1367903,0.0,0.23816828,0.15183908,-0.026704403,-0.15137517,-1.5294534,0.020032808,-0.32580173,-0.0333276,0.8168655,0.48316273,-2.306525,0.0010599645,131.77486,0.1636647,0.30070156,0.43733147,0.14042038,0.09136578,inf,inf,inf,inf,1,1,1,1,2,0,2,1,4,1,1,1
260805044,15154129,-33.9385715,18.8741563,-1.4734735,1.0259148,-0.674477,-0.23954648,0.1367903,0.0,0.23493803,0.167366,-0.027418857,-0.15309657,-1.5294534,0.020032808,-0.32580173,-0.4432735,1.0990857,-0.21797764,-2.3020883,0.0010599645,131.77486,0.1662448,0.30160975,0.4378981,0.14094085,0.09148923,inf,inf,inf,inf,1,1,1,1,2,0,2,1,4,1,1,1
260815086,15154129,-33.9385715,18.8741563,-1.4716208,1.028027,-0.6771866,-0.23954648,0.1367903,0.0,0.22986336,0.1618485,-0.037628274,-0.16438103,-1.5294534,0.020032808,-0.32580173,-0.6597174,-0.80124116,-1.2055888,-2.2981021,0.0010599645,131.77486,0.16895443,0.28521907,0.4350874,0.13222739,0.08976965,inf,inf,inf,inf,1,1,1,1,2,0,2,1,4,1,1,1
260825053,15154129,-33.9385715,18.8741563,-1.4698279,1.0301038,-0.67988855,-0.23954648,0.1367903,0.0,0.22477192,0.1690524,-0.0388236,-0.16655341,-1.5294534,0.020032808,-0.32580173,-0.43463516,1.130723,0.58900195,-2.294197,0.0010599645,131.77486,0.17165637,0.28603318,0.4356385,0.13272761,0.089892566,inf,inf,inf,inf,1,1,1,1,2,0,2,1,4,1,1,1
260835058,15154129,-33.9385715,18.8741563,-1.468033,1.0322422,-0.6832219,-0.23954648,0.1367903,0.0,0.22548002,0.17068073,-0.031609457,-0.16099858,-1.5294534,0.020032808,-0.32580173,0.10226129,-0.4473963,0.3366872,-2.2901573,0.0010599645,131.77486,0.1749897,0.28685242,0.43284252,0.13326098,0.089755096,inf,inf,inf,inf,1,1,1,1,2,0,2,1,4,1,1,1
260845063,15154129,-33.9385715,18.8741563,-1.4662427,1.0343549,-0.68643457,-0.23954648,0.1367903,0.0,0.22066918,0.1729795,-0.03298669,-0.16391042,-1.5294534,0.020032808,-0.32580173,-0.5370212,0.8721171,0.07015245,-2.2859879,0.0010599645,131.77486,0.17820239,0.28767693,0.43339217,0.13377918,0.0898789,inf,inf,inf,inf,1,1,1,1,2,0,2,1,4,1,1,1
260855067,15154129,-33.9385715,18.8741563,-1.4644796,1.0365508,-0.68956417,-0.23954648,0.1367903,0.0,0.2179005,0.18347111,-0.039316818,-0.17165533,-1.5294534,0.020032808,-0.32580173,-0.23297359,0.3724294,-1.1873378,-2.2819304,0.0010599645,131.77486,0.18133199,0.2885067,0.4339432,0.13426822,0.090003066,inf,inf,inf,inf,1,1,1,1,2,0,2,1,4,1,1,1
260865072,15154129,-33.9385715,18.8741563,-1.4627608,1.0387094,-0.6927247,-0.23954648,0.1367903,0.0,0.20860925,0.17441626,-0.05307831,-0.18671602,-1.5294534,0.020032808,-0.32580173,-0.98217654,-0.32732782,-0.76778835,-2.2778451,0.0010599645,131.77486,0.18449253,0.28934157,0.4344957,0.1348036,0.09012681,inf,inf,inf,inf,1,1,1,1,2,0,2,1,4,1,1,1
260875077,15154129,-33.9385715,18.8741563,-1.4611032,1.040878,-0.69581306,-0.23954648,0.1367903,0.0,0.20339477,0.18394725,-0.047998678,-0.18282497,-1.5294534,0.020032808,-0.32580173,-0.51962876,0.70474035,0.33003017,-2.2740116,0.0010599645,131.77486,0.18758088,0.2901818,0.43504953,0.13534074,0.09025058,inf,inf,inf,inf,1,1,1,1,2,0,2,1,4,1,1,1
260885081,15154129,-33.9385715,18.8741563,-1.4595015,1.0430121,-0.6988084,-0.23954648,0.1367903,0.0,0.19418934,0.17263402,-0.0514589,-0.1873671,-1.5294534,0.020032808,-0.32580173,-1.0677259,-0.8500429,-0.21980874,-2.2706435,0.0010599645,131.77486,0.1905762,0.29102734,0.4356048,0.13583983,0.09037492,inf,inf,inf,inf,1,1,1,1,2,0,2,1,4,1,1,1
260895085,15154129,-33.9385715,18.8741563,-1.4579768,1.0451576,-0.70171845,-0.23954648,0.1367903,0.0,0.18660931,0.18722537,-0.051013287,-0.18790136,-1.5294534,0.020032808,-0.32580173,-0.7046666,1.4773443,-0.28290465,-2.2670956,0.0010599645,131.77486,0.19348627,0.29187813,0.43616152,0.13634382,0.090498686,inf,inf,inf,inf,1,1,1,1,2,0,2,1,4,1,1,1
260905091,15154129,-33.9385715,18.8741563,-1.456503,1.0473229,-0.70459944,-0.23954648,0.1367903,0.0,0.18113387,0.1793315,-0.05895199,-0.19672167,-1.5294534,0.020032808,-0.32580173,-0.57987756,-0.66791487,-0.36076206,-2.263704,0.0010599645,131.77486,0.19636726,0.29273418,0.43671963,0.13688128,0.0906211,inf,inf,inf,inf,1,1,1,1,2,0,2,1,4,1,1,1
260915094,15154129,-33.9385715,18.8741563,-1.4550685,1.0495232,-0.7082228,-0.23954648,0.1367903,0.0,0.17727618,0.19571643,-0.05501219,-0.19440213,-1.5294534,0.020032808,-0.32580173,-0.28920802,1.5990697,0.0577415,-2.2604542,0.0010599645,131.77486,0.19999063,0.2935956,0.43390578,0.13742538,0.09047837,inf,inf,inf,inf,1,1,1,1,2,0,2,1,4,1,1,1
260925100,15154129,-33.9385715,18.8741563,-1.4536208,1.0517614,-0.7117368,-0.23954648,0.1367903,0.0,0.18048409,0.18979816,-0.054014616,-0.19489752,-1.5294534,0.020032808,-0.32580173,0.22720252,-0.44273436,0.7290837,-2.2574036,0.0010599645,131.77486,0.20350462,0.2944625,0.4344624,0.13792986,0.09060267,inf,inf,inf,inf,1,1,1,1,2,0,2,1,4,1,1,1
260935103,15154129,-33.9385715,18.8741563,-1.4521227,1.0540272,-0.7150483,-0.23954648,0.1367903,0.0,0.18496306,0.20124535,-0.04077587,-0.18302967,-1.5294534,0.020032808,-0.32580173,0.28338262,0.86019146,0.9089059,-2.254202,0.0010599645,131.77486,0.20681614,0.2953347,0.43502045,0.1384594,0.09072529,inf,inf,inf,inf,1,1,1,1,2,0,2,1,4,1,1,1
260945108,15154129,-33.9385715,18.8741563,-1.450584,1.0562749,-0.71822804,-0.23954648,0.1367903,0.0,0.18621758,0.19179957,-0.04412798,-0.18763502,-1.5294534,0.020032808,-0.32580173,-0.061010968,-0.48817685,0.01626806,-2.251112,0.0010599645,131.77486,0.20999587,0.2962123,0.43557993,0.13901319,0.09084757,inf,inf,inf,inf,1,1,1,1,2,0,2,1,4,1,1,1
260955114,15154129,-33.9385715,18.8741563,-1.4490507,1.0584939,-0.72130513,-0.23954648,0.1367903,0.0,0.18220235,0.19005927,-0.04427673,-0.1889244,-1.5294534,0.020032808,-0.32580173,-0.5231152,-1.2082126,-0.54186016,-2.2481065,0.0010599645,131.77486,0.21307296,0.29709545,0.43614084,0.13956419,0.09097114,inf,inf,inf,inf,1,1,1,1,2,0,2,1,4,1,1,1
260965117,15154129,-33.9385715,18.8741563,-1.4475585,1.0605971,-0.72435564,-0.23954648,0.1367903,0.0,0.17683533,0.1819744,-0.051549647,-0.19722982,-1.5294534,0.020032808,-0.32580173,-0.5046946,0.45378894,-0.016879765,-2.2454357,0.0010599645,131.77486,0.21612346,0.29798412,0.43670315,0.14007369,0.09109452,inf,inf,inf,inf,1,1,1,1,2,0,2,1,4,1,1,1
260975122,15154129,-33.9385715,18.8741563,-1.4460998,1.0626978,-0.72732615,-0.23954648,0.1367903,0.0,0.17491698,0.17853731,-0.051505573,-0.19811405,-1.5294534,0.020032808,-0.32580173,0.1256969,-1.644118,-0.28041136,-2.2426765,0.0010599645,131.77486,0.21909398,0.2988782,0.4372669,0.14060259,0.09121568,inf,inf,inf,inf,1,1,1,1,2,0,2,1,4,1,1,1
260985127,15154129,-33.9385715,18.8741563,-1.4445714,1.0647763,-0.7301685,-0.23954648,0.1367903,0.0,0.1865519,0.19228874,-0.039553344,-0.18699032,-1.5294534,0.020032808,-0.32580173,1.0054996,2.6658466,1.6886848,-2.239915,0.0010599645,131.77486,0.22193635,0.29977772,0.43783206,0.14116573,0.09133908,inf,inf,inf,inf,1,1,1,1,2,0,2,1,4,1,1,1
260995131,15154129,-33.9385715,18.8741563,-1.4429408,1.0669324,-0.73285353,-0.23954648,0.1367903,0.0,0.19542307,0.1846462,-0.040172853,-0.18834297,-1.5294534,0.020032808,-0.32580173,1.1000373,-1.6839137,-0.16453043,-2.2370572,0.0010599645,131.77486,0.22462136,0.3006829,0.43839866,0.141697,0.09146095,inf,inf,inf,inf,1,1,1,1,2,0,2,1,4,1,1,1
261005136,15154129,-33.9385715,18.8741563,-1.4412291,1.069029,-0.73637146,-0.23954648,0.1367903,0.0,0.19724528,0.18414275,-0.038186755,-0.18794519,-1.5294534,0.020032808,-0.32580173,-0.37349784,-0.52532697,-0.5740338,-2.234018,0.0010599645,131.77486,0.22813928,0.3015936,0.43555444,0.1421999,0.09131036,inf,inf,inf,inf,1,1,1,1,2,0,2,1,4,1,1,1
261015140,15154129,-33.9385715,18.8741563,-1.439634,1.0711069,-0.7397324,-0.23954648,0.1367903,0.0,0.19416188,0.17501335,-0.04460196,-0.19569907,-1.5294534,0.020032808,-0.32580173,-0.21031214,0.4187314,0.5536756,-2.2312388,0.0010599645,131.77486,0.23150021,0.28518304,0.43279397,0.1333712,0.08959987,inf,inf,inf,inf,1,1,1,1,2,0,2,1,4,1,1,1
261025148,15154129,-33.9385715,18.8741563,-1.4380455,1.0731938,-0.74294865,-0.23954648,0.1367903,0.0,0.19523929,0.17583339,-0.039073568,-0.1913899,-1.5294534,0.020032808,-0.32580173,0.57361907,-1.0480239,-0.074637756,-2.228506,0.0010599645,131.77486,0.23471648,0.28599823,0.43334216,0.13390931,0.08972204,inf,inf,inf,inf,1,1,1,1,2,0,2,1,4,1,1,1
261035169,15154129,-33.9385715,18.8741563,-1.4363465,1.0753062,-0.7460016,-0.23954648,0.1367903,0.0,0.20944911,0.1885546,-0.02923426,-0.18265486,-1.5294534,0.020032808,-0.32580173,1.086225,1.5151458,0.93802696,-2.2258081,0.0010599645,131.77486,0.23776942,0.28681868,0.43389177,0.13447163,0.08984549,inf,inf,inf,inf,1,1,1,1,2,0,2,1,4,1,1,1
261045154,15154129,-33.9385715,18.8741563,-1.4345577,1.077407,-0.7489593,-0.23954648,0.1367903,0.0,0.21345705,0.17805855,-0.035749987,-0.19016472,-1.5294534,0.020032808,-0.32580173,0.26617116,-0.58021736,0.08907526,-2.2231348,0.0010599645,131.77486,0.24072713,0.2876446,0.43444276,0.13497336,0.08996745,inf,inf,inf,inf,1,1,1,1,2,0,2,1,4,1,1,1
261055159,15154129,-33.9385715,18.8741563,-1.4327719,1.0794634,-0.75182027,-0.23954648,0.1367903,0.0,0.20658986,0.17272724,-0.037645325,-0.19294848,-1.5294534,0.020032808,-0.32580173,-0.68237466,-1.701997,-1.266785,-2.2203348,0.0010599645,131.77486,0.24358809,0.28847572,0.43499517,0.13550316,0.090091206,inf,inf,inf,inf,1,1,1,1,2,0,2,1,4,1,1,1
261065163,15154129,-33.9385715,18.8741563,-1.4309872,1.0815375,-0.7546068,-0.23954648,0.1367903,0.0,0.21187343,0.19193728,-0.031168371,-0.18725829,-1.5294534,0.020032808,-0.32580173,0.6742035,2.4207835,1.1267467,-2.2176948,0.0010599645,131.77486,0.2463746,0.28931224,0.435549,0.136025,0.09021219,inf,inf,inf,inf,1,1,1,1,2,0,2,1,4,1,1,1
261075169,15154129,-33.9385715,18.8741563,-1.4291042,1.0836968,-0.7572922,-0.23954648,0.1367903,0.0,0.22377437,0.19287556,-0.032697134,-0.1894765,-1.5294534,0.020032808,-0.32580173,1.2573277,0.85220706,0.7891478,-2.2148688,0.0010599645,131.77486,0.24906003,0.29015404,0.4361042,0.13657464,0.090336,inf,inf,inf,inf,1,1,1,1,2,0,2,1,4,1,1,1
261085216,15154129,-33.9385715,18.8741563,-1.4271308,1.0858328,-0.7598709,-0.23954648,0.1367903,0.0,0.22295304,0.17856546,-0.0367489,-0.1941244,-1.5294534,0.020032808,-0.32580173,-0.6392326,-2.4604921,-1.5246391,-2.211965,0.0010599645,131.77486,0.2516387,0.29100132,0.43666086,0.13708761,0.090457276,inf,inf,inf,inf,1,1,1,1,2,0,2,1,4,1,1,1
261095198,15154129,-33.9385715,18.8741563,-1.4252002,1.087931,-0.76326096,-0.23954648,0.1367903,0.0,0.2195686,0.19316624,-0.03488713,-0.19363995,-1.5294534,0.020032808,-0.32580173,-0.2528441,1.172236,-0.065955095,-2.2093978,0.0010599645,131.77486,0.25502878,0.29185393,0.43384695,0.13760923,0.090316735,inf,inf,inf,inf,1,1,1,1,2,0,2,1,4,1,1,1
261105182,15154129,-33.9385715,18.8741563,-1.4232275,1.0901217,-0.766579,-0.23954648,0.1367903,0.0,0.23149897,0.20469925,-0.03669911,-0.19670497,-1.5294534,0.020032808,-0.32580173,1.6855223,2.0426302,1.0408477,-2.2069604,0.0010599645,131.77486,0.2583468,0.2927119,0.43440208,0.13809203,0.09043983,inf,inf,inf,inf,1,1,1,1,2,0,2,1,4,1,1,1
261115185,15154129,-33.9385715,18.8741563,-1.4211282,1.0922787,-0.7698146,-0.23954648,0.1367903,0.0,0.23696159,0.18558769,-0.045040574,-0.20618017,-1.5294534,0.020032808,-0.32580173,-0.03839081,-1.3632392,-0.75054145,-2.2043326,0.0010599645,131.77486,0.26158243,0.29357514,0.43495867,0.13863142,0.090564825,inf,inf,inf,inf,1,1,1,1,2,0,2,1,4,1,1,1
261125197,15154129,-33.9385715,18.8741563,-1.4190226,1.0944238,-0.7729481,-0.23954648,0.1367903,0.0,0.23361461,0.19774793,-0.04233031,-0.20448913,-1.5294534,0.020032808,-0.32580173,-0.313283,0.545479,-0.83225346,-2.2017374,0.0010599645,131.77486,0.2647159,0.29444388,0.43551666,0.13916226,0.090688206,inf,inf,inf,inf,1,1,1,1,2,0,2,1,4,1,1,1
261135203,15154129,-33.9385715,18.8741563,-1.4168662,1.0966907,-0.7760155,-0.23954648,0.1367903,0.0,0.2464796,0.20554467,-0.047507845,-0.21057595,-1.5294534,0.020032808,-0.32580173,1.4581871,-1.0804458,-0.79776716,-2.1997442,0.0010599645,131.77486,0.26778334,0.29531807,0.43607607,0.1397189,0.090812124,inf,inf,inf,inf,1,1,1,1,2,0,2,1,4,1,1,1
261145203,15154129,-33.9385715,18.8741563,-1.4146203,1.0988479,-0.7790683,-0.23954648,0.1367903,0.0,0.24721871,0.19890901,-0.048180666,-0.21205258,-1.5294534,0.020032808,-0.32580173,-0.32815668,1.6774881,1.6727353,-2.198215,0.0010599645,131.77486,0.2708361,0.29619786,0.43663692,0.14025205,0.09093597,inf,inf,inf,inf,1,1,1,1,2,0,2,1,4,1,1,1
261155205,15154129,-33.9385715,18.8741563,-1.4123621,1.1010717,-0.7819634,-0.23954648,0.1367903,0.0,0.2501889,0.21007992,-0.0448747,-0.20944902,-1.5294534,0.020032808,-0.32580173,0.4809242,1.4775616,-0.024881352,-2.1964576,0.0010599645,131.77486,0.27373123,0.29708314,0.4371992,0.14074701,0.09105967,inf,inf,inf,inf,1,1,1,1,2,0,2,1,4,1,1,1
261165209,15154129,-33.9385715,18.8741563,-1.4100313,1.1032718,-0.78479815,-0.23954648,0.1367903,0.0,0.25711313,0.18646638,-0.057506956,-0.22268663,-1.5294534,0.020032808,-0.32580173,0.28768966,-3.8601828,-2.380962,-2.195168,0.0010599645,131.77486,0.27656597,0.29797378,0.4377629,0.1412851,0.09118549,inf,inf,inf,inf,1,1,1,1,2,0,2,1,4,1,1,1
261175213,15154129,-33.9385715,18.8741563,-1.4076985,1.1053696,-0.78880584,-0.23954648,0.1367903,0.0,0.2521369,0.19787692,-0.0555551,-0.22243483,-1.5294534,0.020032808,-0.32580173,-0.3376473,1.0392499,0.16070458,-2.194032,0.0010599645,131.77486,0.28057367,0.29887,0.43493053,0.1418158,0.09103823,inf,inf,inf,inf,1,1,1,1,2,0,2,1,4,1,1,1
261185222,15154129,-33.9385715,18.8741563,-1.4053315,1.1075062,-0.7927397,-0.23954648,0.1367903,0.0,0.26381612,0.1939997,-0.063413024,-0.23185116,-1.5294534,0.020032808,-0.32580173,1.6410471,-0.7207741,0.01316754,-2.1933498,0.0010599645,131.77486,0.2845075,0.2997718,0.4354927,0.14237691,0.091162644,inf,inf,inf,inf,1,1,1,1,2,0,2,1,4,1,1,1
261195227,15154129,-33.9385715,18.8741563,-1.4028515,1.1095107,-0.79659057,-0.23954648,0.1367903,0.0,0.2691619,0.18953723,-0.05944537,-0.22930561,-1.5294534,0.020032808,-0.32580173,0.1618357,2.4925826,1.8487064,-2.1929412,0.0010599645,131.77486,0.2883584,0.30067924,0.4360563,0.14289834,0.09128648,inf,inf,inf,inf,1,1,1,1,2,0,2,1,4,1,1,1
261205235,15154129,-33.9385715,18.8741563,-1.4002986,1.1116478,-0.80021644,-0.23954648,0.1367903,0.0,0.28033704,0.19960907,-0.05515982,-0.2263114,-1.5294534,0.020032808,-0.32580173,1.4316595,-0.46273345,-0.8793809,-2.1925359,0.0010599645,131.77486,0.29198426,0.30159226,0.43662134,0.14340825,0.091410756,inf,inf,inf,inf,1,1,1,1,2,0,2,1,4,1,1,1
261215249,15154129,-33.9385715,18.8741563,-1.3980849,1.1139492,-0.80363166,-0.23954648,0.1367903,0.0,0.28506124,0.18694404,-0.053819757,-0.22604106,-1.5294534,0.020032808,-0.32580173,-0.23687729,-2.4151666,-0.27326968,-2.1924849,0.0010599645,131.77486,0.2953995,0.28518927,0.43383738,0.13443996,0.08969726,inf,inf,inf,inf,1,1,1,1,2,0,2,1,4,1,1,1
261225236,15154129,-33.9385715,18.8741563,-1.3958758,1.1162436,-0.80690473,-0.23954648,0.1367903,0.0,0.28196266,0.20543882,-0.045827597,-0.21900241,-1.5294534,0.020032808,-0.32580173,-0.014712893,1.3800731,0.7362026,-2.1923592,0.0010599645,131.77486,0.29867256,0.28600547,0.43438694,0.13497244,0.08982086,inf,inf,inf,inf,1,1,1,1,2,0,2,1,4,1,1,1
261235244,15154129,-33.9385715,18.8741563,-1.3936154,1.1184568,-0.81014174,-0.23954648,0.1367903,0.0,0.28903595,0.18100014,-0.06076516,-0.23478197,-1.5294534,0.020032808,-0.32580173,0.751697,-1.1527572,-0.39935204,-2.1927214,0.0010599645,131.77486,0.30190957,0.28682697,0.43493792,0.13548139,0.089943305,inf,inf,inf,inf,1,1,1,1,2,0,2,1,4,1,1,1
261245257,15154129,-33.9385715,18.8741563,-1.3912665,1.1205708,-0.81329864,-0.23954648,0.1367903,0.0,0.29524842,0.18939745,-0.054174215,-0.2289259,-1.5294534,0.020032808,-0.32580173,0.5930293,2.5009265,0.7841123,-2.193129,0.0010599645,131.77486,0.30506647,0.2876538,0.43549028,0.13601731,0.09006871,inf,inf,inf,inf,1,1,1,1,2,0,2,1,4,1,1,1
261255250,15154129,-33.9385715,18.8741563,-1.3888292,1.122813,-0.81628984,-0.23954648,0.1367903,0.0,0.30440944,0.1875148,-0.053742565,-0.22912632,-1.5294534,0.020032808,-0.32580173,0.8868593,-2.9996247,-1.3236606,-2.1931663,0.0010599645,131.77486,0.30805767,0.288486,0.43604407,0.13656215,0.090194084,inf,inf,inf,inf,1,1,1,1,2,0,2,1,4,1,1,1
261265255,15154129,-33.9385715,18.8741563,-1.3863382,1.1249399,-0.8205635,-0.23954648,0.1367903,0.0,0.30161098,0.18668821,-0.05191114,-0.22917143,-1.5294534,0.020032808,-0.32580173,-0.3646795,0.8611705,0.9228521,-2.1932898,0.0010599645,131.77486,0.31233132,0.28932372,0.43324152,0.13708903,0.090053126,inf,inf,inf,inf,1,1,1,1,2,0,2,1,4,1,1,1
261275259,15154129,-33.9385715,18.8741563,-1.3838114,1.127079,-0.8246928,-0.23954648,0.1367903,0.0,0.3113012,0.19029061,-0.050762475,-0.22974582,-1.5294534,0.020032808,-0.32580173,1.5067216,0.98525953,1.0751966,-2.193818,0.0010599645,131.77486,0.3164606,0.29016683,0.43379384,0.1376308,0.090177394,inf,inf,inf,inf,1,1,1,1,2,0,2,1,4,1,1,1
261285266,15154129,-33.9385715,18.8741563,-1.3811635,1.1291338,-0.82867867,-0.23954648,0.1367903,0.0,0.3181192,0.17542788,-0.052867047,-0.23342554,-1.5294534,0.020032808,-0.32580173,0.36729625,-0.09849015,-0.008347685,-2.1941555,0.0010599645,131.77486,0.3204465,0.29101545,0.43434757,0.1381927,0.09030422,inf,inf,inf,inf,1,1,1,1,2,0,2,1,4,1,1,1
261295268,15154129,-33.9385715,18.8741563,-1.3785077,1.1312441,-0.8325274,-0.23954648,0.1367903,0.0,0.31194523,0.18616202,-0.056350306,-0.23834218,-1.5294534,0.020032808,-0.32580173,-0.56144714,-1.0286537,-1.8107363,-2.1940966,0.0010599645,131.77486,0.32429522,0.29186967,0.43490273,0.13872173,0.0904262,inf,inf,inf,inf,1,1,1,1,2,0,2,1,4,1,1,1
261305272,15154129,-33.9385715,18.8741563,-1.3758588,1.1332651,-0.8363871,-0.23954648,0.1367903,0.0,0.31505206,0.16437198,-0.06912776,-0.2524167,-1.5294534,0.020032808,-0.32580173,0.67382723,-3.3572776,-0.76090616,-2.1946003,0.0010599645,131.77486,0.32815492,0.29272935,0.43545932,0.13927999,0.09055096,inf,inf,inf,inf,1,1,1,1,2,0,2,1,4,1,1,1
261315277,15154129,-33.9385715,18.8741563,-1.3731538,1.1351656,-0.84017503,-0.23954648,0.1367903,0.0,0.31763953,0.17860673,-0.06348247,-0.24793792,-1.5294534,0.020032808,-0.32580173,0.10568116,3.2979767,1.4863399,-2.1951354,0.0010599645,131.77486,0.33194286,0.29359466,0.43601733,0.139821,0.09067564,inf,inf,inf,inf,1,1,1,1,2,0,2,1,4,1,1,1
261325282,15154129,-33.9385715,18.8741563,-1.3704481,1.1371351,-0.84389746,-0.23954648,0.1367903,0.0,0.31262314,0.17048632,-0.08292093,-0.2684175,-1.5294534,0.020032808,-0.32580173,-0.59506476,-0.8105041,-1.9410805,-2.1958919,0.0010599645,131.77486,0.3356653,0.29446554,0.43657675,0.14035232,0.09079856,inf,inf,inf,inf,1,1,1,1,2,0,2,1,4,1,1,1
261335290,15154129,-33.9385715,18.8741563,-1.3677242,1.1389428,-0.8476436,-0.23954648,0.1367903,0.0,0.3208708,0.15950178,-0.0848401,-0.2712574,-1.5294534,0.020032808,-0.32580173,1.2215922,1.1755371,0.75218755,-2.1964788,0.0010599645,131.77486,0.33941144,0.29534194,0.4371376,0.14093632,0.090926,inf,inf,inf,inf,1,1,1,1,2,0,2,1,4,1,1,1
261345291,15154129,-33.9385715,18.8741563,-1.3648806,1.1408293,-0.8512336,-0.23954648,0.1367903,0.0,0.33010814,0.1691295,-0.08527641,-0.27249908,-1.5294534,0.020032808,-0.32580173,0.47873122,-0.55192846,-1.6280503,-2.1973581,0.0010599645,131.77486,0.34300143,0.29622418,0.43769988,0.14147389,0.09104764,inf,inf,inf,inf,1,1,1,1,2,0,2,1,4,1,1,1
261355295,15154129,-33.9385715,18.8741563,-1.3620014,1.1426493,-0.855864,-0.23954648,0.1367903,0.0,0.32818395,0.14854763,-0.10536249,-0.294288,-1.5294534,0.020032808,-0.32580173,-0.037562586,-3.3712823,-1.9922321,-2.1983495,0.0010599645,131.77486,0.3476318,0.297112,0.43486756,0.1420469,0.090903215,inf,inf,inf,inf,1,1,1,1,2,0,2,1,4,1,1,1
261365301,15154129,-33.9385715,18.8741563,-1.3590777,1.1444006,-0.8604487,-0.23954648,0.1367903,0.0,0.33580688,0.15850614,-0.104002155,-0.29447985,-1.5294534,0.020032808,-0.32580173,0.7842706,0.13962875,-0.091688275,-2.199331,0.0010599645,131.77486,0.35221654,0.2980056,0.43542832,0.14257923,0.0910283,inf,inf,inf,inf,1,1,1,1,2,0,2,1,4,1,1,1
261375304,15154129,-33.9385715,18.8741563,-1.3561219,1.1460603,-0.86504865,-0.23954648,0.1367903,0.0,0.33317176,0.13446064,-0.12974402,-0.3216288,-1.5294534,0.020032808,-0.32580173,-0.054965135,-2.7817988,-2.0042815,-2.2004042,0.0010599645,131.77486,0.35681647,0.29890484,0.4359905,0.1431143,0.09115252,inf,inf,inf,inf,1,1,1,1,2,0,2,1,4,1,1,1
261385309,15154129,-33.9385715,18.8741563,-1.3531291,1.1475476,-0.86968446,-0.23954648,0.1367903,0.0,0.33906612,0.14065449,-0.13325787,-0.32641083,-1.5294534,0.020032808,-0.32580173,0.42887747,3.2524846,0.69045794,-2.201468,0.0010599645,131.77486,0.36145228,0.2998097,0.43655416,0.14365804,0.09127848,inf,inf,inf,inf,1,1,1,1,2,0,2,1,4,1,1,1
261395314,15154129,-33.9385715,18.8741563,-1.3500781,1.1490496,-0.87428844,-0.23954648,0.1367903,0.0,0.34591937,0.12564825,-0.15198018,-0.34626782,-1.5294534,0.020032808,-0.32580173,1.2237734,-1.4995252,-1.7912668,-2.2027464,0.0010599645,131.77486,0.36605626,0.30072027,0.43711922,0.14418158,0.09139951,inf,inf,inf,inf,1,1,1,1,2,0,2,1,4,1,1,1
261405318,15154129,-33.9385715,18.8741563,-1.3468915,1.1504052,-0.87885904,-0.23954648,0.1367903,0.0,0.355677,0.12418046,-0.15009485,-0.3453893,-1.5294534,0.020032808,-0.32580173,-0.1555563,2.2157447,0.1953295,-2.2044802,0.0010599645,131.77486,0.37062687,0.30163652,0.43768573,0.14478423,0.09152708,inf,inf,inf,inf,1,1,1,1,2,0,2,1,4,1,1,1
261415323,15154129,-33.9385715,18.8741563,-1.3440685,1.1516252,-0.88348305,-0.23954648,0.1367903,0.0,0.3520148,0.11684658,-0.17314985,-0.3694195,-1.5294534,0.020032808,-0.32580173,0.83409774,-3.166493,-3.509824,-2.2058525,0.0010599645,131.77486,0.37525088,0.28519678,0.43487805,0.13558605,0.08980461,inf,inf,inf,inf,1,1,1,1,2,0,2,1,4,1,1,1
261425327,15154129,-33.9385715,18.8741563,-1.3411664,1.1526004,-0.88822997,-0.23954648,0.1367903,0.0,0.3570563,0.090409376,-0.19074969,-0.3878727,-1.5294534,0.020032808,-0.32580173,-0.3575835,-2.1996102,-1.8396918,-2.2076294,0.0010599645,131.77486,0.3799978,0.2860147,0.43542898,0.13612033,0.08992993,inf,inf,inf,inf,1,1,1,1,2,0,2,1,4,1,1,1
261435332,15154129,-33.9385715,18.8741563,-1.3382499,1.1535654,-0.8939863,-0.23954648,0.1367903,0.0,0.364429,0.09986626,-0.19959345,-0.39844245,-1.5294534,0.020032808,-0.32580173,2.5944054,-1.5564387,-0.8430684,-2.2092307,0.0010599645,131.77486,0.3857541,0.28683805,0.4326377,0.13664974,0.08979331,inf,inf,inf,inf,1,1,1,1,2,0,2,1,4,1,1,1
261445339,15154129,-33.9385715,18.8741563,-1.3351686,1.1544448,-0.89968467,-0.23954648,0.1367903,0.0,0.36987388,0.08044429,-0.21006142,-0.41048056,-1.5294534,0.020032808,-0.32580173,-0.7744021,-3.0205047,-1.6989021,-2.2109916,0.0010599645,131.77486,0.3914525,0.2876669,0.43318722,0.13718486,0.089918084,inf,inf,inf,inf,1,1,1,1,2,0,2,1,4,1,1,1
261455354,15154129,-33.9385715,18.8741563,-1.3320701,1.1552665,-0.9053689,-0.23954648,0.1367903,0.0,0.37394053,0.08907918,-0.21865588,-0.42049572,-1.5294534,0.020032808,-0.32580173,1.1784205,-0.013672993,-0.6869669,-2.212831,0.0010599645,131.77486,0.39713675,0.2885012,0.43373814,0.13773024,0.09004452,inf,inf,inf,inf,1,1,1,1,2,0,2,1,4,1,1,1
261465345,15154129,-33.9385715,18.8741563,-1.3289392,1.1560302,-0.9111013,-0.23954648,0.1367903,0.0,0.3734005,0.07077882,-0.2452695,-0.44838637,-1.5294534,0.020032808,-0.32580173,0.5208146,-2.5153408,-2.3705678,-2.2146535,0.0010599645,131.77486,0.4028691,0.28934106,0.4342905,0.13828202,0.09016589,inf,inf,inf,inf,1,1,1,1,2,0,2,1,4,1,1,1
261475350,15154129,-33.9385715,18.8741563,-1.3256595,1.1566104,-0.9168719,-0.23954648,0.1367903,0.0,0.39139917,0.069960415,-0.24734764,-0.4516039,-1.5294534,0.020032808,-0.32580173,0.8675707,2.715764,0.67515016,-2.216329,0.0010599645,131.77486,0.40863973,0.29018655,0.43484426,0.13886507,0.09029241,inf,inf,inf,inf,1,1,1,1,2,0,2,1,4,1,1,1
261485359,15154129,-33.9385715,18.8741563,-1.3223342,1.1572633,-0.9226037,-0.23954648,0.1367903,0.0,0.3887623,0.07112988,-0.265135,-0.4703981,-1.5294534,0.020032808,-0.32580173,0.81829184,0.14438106,-1.6732886,-2.2180948,0.0010599645,131.77486,0.41437155,0.29103777,0.43539947,0.1393903,0.0904146,inf,inf,inf,inf,1,1,1,1,2,0,2,1,4,1,1,1
261495360,15154129,-33.9385715,18.8741563,-1.3189594,1.1577289,-0.9284078,-0.23954648,0.1367903,0.0,0.3885519,0.04334239,-0.28474826,-0.49089158,-1.5294534,0.020032808,-0.32580173,-0.9409642,-0.6363326,-1.79608,-2.220156,0.0010599645,131.77486,0.4201756,0.29189456,0.43595606,0.13999894,0.09053809,inf,inf,inf,inf,1,1,1,1,2,0,2,1,4,1,1,1
261505364,15154129,-33.9385715,18.8741563,-1.3155077,1.1581521,-0.93421006,-0.23954648,0.1367903,0.0,0.40834808,0.049830116,-0.28931433,-0.4962163,-1.5294534,0.020032808,-0.32580173,2.623906,0.3032048,-0.7814837,-2.2224886,0.0010599645,131.77486,0.4259779,0.29275724,0.4365141,0.14055137,0.09066404,inf,inf,inf,inf,1,1,1,1,2,0,2,1,4,1,1,1
261515368,15154129,-33.9385715,18.8741563,-1.3119744,1.1585487,-0.9400398,-0.23954648,0.1367903,0.0,0.39830396,0.030633304,-0.31309882,-0.5206428,-1.5294534,0.020032808,-0.32580173,-1.0413598,-3.836996,-3.0751846,-2.2244775,0.0010599645,131.77486,0.43180764,0.2936256,0.43707356,0.14110169,0.09078761,inf,inf,inf,inf,1,1,1,1,2,0,2,1,4,1,1,1
261525373,15154129,-33.9385715,18.8741563,-1.3084396,1.1587819,-0.94709426,-0.23954648,0.1367903,0.0,0.40527886,0.024861526,-0.31795788,-0.52722186,-1.5294534,0.020032808,-0.32580173,0.6009767,-0.98376054,-0.97322744,-2.2264655,0.0010599645,131.77486,0.4388621,0.29449967,0.4342529,0.14171608,0.09064553,inf,inf,inf,inf,1,1,1,1,2,0,2,1,4,1,1,1
261535429,15154129,-33.9385715,18.8741563,-1.3047823,1.1590593,-0.95412475,-0.23954648,0.1367903,0.0,0.4198756,0.03111539,-0.3287089,-0.53953296,-1.5294534,0.020032808,-0.32580173,2.2070472,-1.4233031,-0.68700886,-2.22872,0.0010599645,131.77486,0.44589257,0.29537973,0.43481085,0.14226237,0.09076886,inf,inf,inf,inf,1,1,1,1,2,0,2,1,4,1,1,1
261545410,15154129,-33.9385715,18.8741563,-1.3010908,1.1592011,-0.9611322,-0.23954648,0.1367903,0.0,0.405455,0.01658242,-0.34560063,-0.5578316,-1.5294534,0.020032808,-0.32580173,-2.6584265,0.116894424,-1.3273453,-2.2310457,0.0010599645,131.77486,0.45290005,0.29626554,0.43537024,0.14289911,0.09089471,inf,inf,inf,inf,1,1,1,1,2,0,2,1,4,1,1,1
261555396,15154129,-33.9385715,18.8741563,-1.2974149,1.1593028,-0.9681115,-0.23954648,0.1367903,0.0,0.42390862,0.02313366,-0.34527475,-0.55876535,-1.5294534,0.020032808,-0.32580173,2.7169394,2.3256474,1.1785463,-2.2334278,0.0010599645,131.77486,0.45987934,0.29715747,0.43593106,0.14346421,0.091018125,inf,inf,inf,inf,1,1,1,1,2,0,2,1,4,1,1,1
261565394,15154129,-33.9385715,18.8741563,-1.2936178,1.1594062,-0.9750263,-0.23954648,0.1367903,0.0,0.41780293,0.012018364,-0.36630645,-0.5809157,-1.5294534,0.020032808,-0.32580173,-1.355878,-0.4444961,-2.7938244,-2.2358475,0.0010599645,131.77486,0.46679413,0.29805526,0.4364933,0.14408228,0.09114435,inf,inf,inf,inf,1,1,1,1,2,0,2,1,4,1,1,1
261575396,15154129,-33.9385715,18.8741563,-1.2898563,1.1593734,-0.981994,-0.23954648,0.1367903,0.0,0.41643956,-0.005515097,-0.3767533,-0.59234536,-1.5294534,0.020032808,-0.32580173,-0.39592552,-1.2958568,-1.0842689,-2.2383695,0.0010599645,131.77486,0.4737618,0.29895914,0.437057,0.14463174,0.09126932,inf,inf,inf,inf,1,1,1,1,2,0,2,1,4,1,1,1
261585400,15154129,-33.9385715,18.8741563,-1.2860821,1.159351,-0.9888655,-0.23954648,0.1367903,0.0,0.42660287,0.0033379234,-0.3714839,-0.58792895,-1.5294534,0.020032808,-0.32580173,2.60149,-0.93435496,0.23239696,-2.2409472,0.0010599645,131.77486,0.48063332,0.29986885,0.43762213,0.14526628,0.09139287,inf,inf,inf,inf,1,1,1,1,2,0,2,1,4,1,1,1
261595405,15154129,-33.9385715,18.8741563,-1.2822037,1.1593055,-0.99564433,-0.23954648,0.1367903,0.0,0.4188843,-0.005881952,-0.3826812,-0.59985477,-1.5294534,0.020032808,-0.32580173,-2.3888018,-1.8936206,-1.7815983,-2.2432122,0.0010599645,131.77486,0.48741215,0.3007848,0.4381887,0.14588477,0.09152038,inf,inf,inf,inf,1,1,1,1,2,0,2,1,4,1,1,1
261605409,15154129,-33.9385715,18.8741563,-1.2783821,1.1591098,-1.0024313,-0.23954648,0.1367903,0.0,0.4265242,-0.010196423,-0.38278982,-0.60057235,-1.5294534,0.020032808,-0.32580173,1.9586654,1.766593,1.7973343,-2.2453976,0.0010599645,131.77486,0.4941991,0.3017069,0.43875667,0.14647473,0.091643445,inf,inf,inf,inf,1,1,1,1,2,0,2,1,4,1,1,1
261615413,15154129,-33.9385715,18.8741563,-1.2743846,1.1591562,-1.0105442,-0.23954648,0.1367903,0.0,0.42188734,-2.102397e-05,-0.39023927,-0.6099758,-1.5294534,0.020032808,-0.32580173,-0.71068627,1.5421062,-0.9925979,-2.2475152,0.0010599645,131.77486,0.502312,0.28519824,0.4325825,0.1370728,0.089657396,inf,inf,inf,inf,1,1,1,1,2,0,2,1,4,1,1,1
261625419,15154129,-33.9385715,18.8741563,-1.2703925,1.1591586,-1.0185705,-0.23954648,0.1367903,0.0,0.42419264,-0.027245734,-0.39830673,-0.6198229,-1.5294534,0.020032808,-0.32580173,0.13851853,-4.121228,-1.5316061,-2.2499053,0.0010599645,131.77486,0.51033837,0.28601986,0.4331306,0.13764216,0.08978034,inf,inf,inf,inf,1,1,1,1,2,0,2,1,4,1,1,1
261635423,15154129,-33.9385715,18.8741563,-1.2664201,1.1590301,-1.0265009,-0.23954648,0.1367903,0.0,0.4210988,-0.01985708,-0.3959478,-0.6190766,-1.5294534,0.020032808,-0.32580173,0.53680474,0.34968477,0.47294256,-2.2523825,0.0010599645,131.77486,0.51826876,0.28684723,0.43368012,0.13827096,0.089906126,inf,inf,inf,inf,1,1,1,1,2,0,2,1,4,1,1,1
261645427,15154129,-33.9385715,18.8741563,-1.2624506,1.15898,-1.0342683,-0.23954648,0.1367903,0.0,0.4141669,-0.0064216694,-0.39447483,-0.61905557,-1.5294534,0.020032808,-0.32580173,-1.4410998,1.8760197,0.35283807,-2.2544708,0.0010599645,131.77486,0.5260361,0.28768054,0.43423107,0.13882403,0.09003248,inf,inf,inf,inf,1,1,1,1,2,0,2,1,4,1,1,1
261655432,15154129,-33.9385715,18.8741563,-1.2585169,1.1588653,-1.0419589,-0.23954648,0.1367903,0.0,0.42268068,-0.03278765,-0.40471372,-0.6305924,-1.5294534,0.020032808,-0.32580173,2.2183673,-2.3162165,-0.16647126,-2.25632,0.0010599645,131.77486,0.53372675,0.28851956,0.43478343,0.13942653,0.09015528,inf,inf,inf,inf,1,1,1,1,2,0,2,1,4,1,1,1
261665440,15154129,-33.9385715,18.8741563,-1.2545348,1.1586363,-1.0495075,-0.23954648,0.1367903,0.0,0.40529072,-0.030632483,-0.4028873,-0.62991583,-1.5294534,0.020032808,-0.32580173,-3.7441204,0.14374785,-1.0486362,-2.2582335,0.0010599645,131.77486,0.5412753,0.2893645,0.43533722,0.14003776,0.0902824,inf,inf,inf,inf,1,1,1,1,2,0,2,1,4,1,1,1
261675458,15154129,-33.9385715,18.8741563,-1.2506949,1.1585202,-1.056948,-0.23954648,0.1367903,0.0,0.4083882,-0.017241234,-0.4014685,-0.6295051,-1.5294534,0.020032808,-0.32580173,1.609905,-0.36237133,0.16985232,-2.2603464,0.0010599645,131.77486,0.5487158,0.29021537,0.43589243,0.14060333,0.090408,inf,inf,inf,inf,1,1,1,1,2,0,2,1,4,1,1,1
261685446,15154129,-33.9385715,18.8741563,-1.2467812,1.1583052,-1.0642741,-0.23954648,0.1367903,0.0,0.40969646,-0.03353586,-0.4030273,-0.63193613,-1.5294534,0.020032808,-0.32580173,-0.8342704,-0.18479735,0.6640957,-2.2627144,0.0010599645,131.77486,0.5560419,0.2910721,0.43644902,0.14122944,0.09053235,inf,inf,inf,inf,1,1,1,1,2,0,2,1,4,1,1,1
261695453,15154129,-33.9385715,18.8741563,-1.2429348,1.1579733,-1.0729183,-0.23954648,0.1367903,0.0,0.39498192,-0.040137954,-0.40813082,-0.6392076,-1.5294534,0.020032808,-0.32580173,-1.8638707,0.7165272,-0.39256015,-2.264724,0.0010599645,131.77486,0.5646861,0.2919349,0.43363997,0.14179614,0.09039268,inf,inf,inf,inf,1,1,1,1,2,0,2,1,4,1,1,1
261705455,15154129,-33.9385715,18.8741563,-1.2392014,1.1577364,-1.08141,-0.23954648,0.1367903,0.0,0.39490107,-0.032599133,-0.41052863,-0.643585,-1.5294534,0.020032808,-0.32580173,1.3879331,-1.7282038,-1.0586052,-2.2665384,0.0010599645,131.77486,0.5731779,0.29280356,0.4341951,0.14238645,0.090517506,inf,inf,inf,inf,1,1,1,1,2,0,2,1,4,1,1,1
261715460,15154129,-33.9385715,18.8741563,-1.2353595,1.1574167,-1.0897853,-0.23954648,0.1367903,0.0,0.39961055,-0.044770848,-0.41267908,-0.64753443,-1.5294534,0.020032808,-0.32580173,-1.2592245,-1.4066843,-0.27119502,-2.268657,0.0010599645,131.77486,0.58155316,0.29367822,0.4347517,0.14299136,0.09064048,inf,inf,inf,inf,1,1,1,1,2,0,2,1,4,1,1,1
261725464,15154129,-33.9385715,18.8741563,-1.2316796,1.1569812,-1.0980942,-0.23954648,0.1367903,0.0,0.37924102,-0.043386474,-0.4212442,-0.65772533,-1.5294534,0.020032808,-0.32580173,-0.13910699,2.341527,0.48326272,-2.2706265,0.0010599645,131.77486,0.58986205,0.29455894,0.4353097,0.1435455,0.09076575,inf,inf,inf,inf,1,1,1,1,2,0,2,1,4,1,1,1
261735468,15154129,-33.9385715,18.8741563,-1.2279886,1.1566398,-1.1062291,-0.23954648,0.1367903,0.0,0.38377312,-0.04206113,-0.4202105,-0.65815073,-1.5294534,0.020032808,-0.32580173,-1.0149895,-1.0100054,-1.1322492,-2.2724578,0.0010599645,131.77486,0.5979969,0.29544556,0.43586913,0.14416924,0.09088958,inf,inf,inf,inf,1,1,1,1,2,0,2,1,4,1,1,1
261745473,15154129,-33.9385715,18.8741563,-1.2243564,1.1562235,-1.1142993,-0.23954648,0.1367903,0.0,0.37731728,-0.05952524,-0.43135136,-0.670591,-1.5294534,0.020032808,-0.32580173,0.11245246,-3.2449281,-1.2678448,-2.274393,0.0010599645,131.77486,0.6060671,0.29633838,0.43643,0.14476058,0.09101507,inf,inf,inf,inf,1,1,1,1,2,0,2,1,4,1,1,1
261755478,15154129,-33.9385715,18.8741563,-1.22076,1.1556808,-1.1222968,-0.23954648,0.1367903,0.0,0.36349854,-0.050539337,-0.42931208,-0.66969764,-1.5294534,0.020032808,-0.32580173,-2.9212322,2.554589,0.8238973,-2.276315,0.0010599645,131.77486,0.61406463,0.29723728,0.4369923,0.14529991,0.09113849,inf,inf,inf,inf,1,1,1,1,2,0,2,1,4,1,1,1
261765482,15154129,-33.9385715,18.8741563,-1.2173197,1.1551883,-1.1301987,-0.23954648,0.1367903,0.0,0.3611595,-0.052549906,-0.4371045,-0.6784891,-1.5294534,0.020032808,-0.32580173,1.3991044,0.68297446,0.17367363,-2.278339,0.0010599645,131.77486,0.62196654,0.29814205,0.437556,0.14589426,0.09126164,inf,inf,inf,inf,1,1,1,1,2,0,2,1,4,1,1,1
261775487,15154129,-33.9385715,18.8741563,-1.21383,1.1546191,-1.1380063,-0.23954648,0.1367903,0.0,0.3567745,-0.07136072,-0.4454894,-0.68773204,-1.5294534,0.020032808,-0.32580173,-1.8245941,-2.115921,-1.7094877,-2.2805035,0.0010599645,131.77486,0.62977415,0.29905298,0.43812117,0.14645492,0.091386534,inf,inf,inf,inf,1,1,1,1,2,0,2,1,4,1,1,1
261785519,15154129,-33.9385715,18.8741563,-1.210455,1.1539296,-1.1469233,-0.23954648,0.1367903,0.0,0.3411977,-0.081652366,-0.44677028,-0.6909028,-1.5294534,0.020032808,-0.32580173,-1.7619276,-2.4015496,-0.34238458,-2.2819734,0.0010599645,131.77486,0.6386911,0.2999699,0.43528196,0.14703687,0.09123468,inf,inf,inf,inf,1,1,1,1,2,0,2,1,4,1,1,1
261795496,15154129,-33.9385715,18.8741563,-1.2072225,1.153221,-1.1556677,-0.23954648,0.1367903,0.0,0.33711055,-0.06660019,-0.44311365,-0.688955,-1.5294534,0.020032808,-0.32580173,0.61508834,1.8518118,1.0650948,-2.2834291,0.0010599645,131.77486,0.6474355,0.30089298,0.43584558,0.14762771,0.091362186,inf,inf,inf,inf,1,1,1,1,2,0,2,1,4,1,1,1
261805500,15154129,-33.9385715,18.8741563,-1.2039604,1.152531,-1.1642503,-0.23954648,0.1367903,0.0,0.3328331,-0.07278972,-0.4453546,-0.69273067,-1.5294534,0.020032808,-0.32580173,-1.6187713,0.56017315,-0.0050698123,-2.2850814,0.0010599645,131.77486,0.6560181,0.30182222,0.43641064,0.14817901,0.09148345,inf,inf,inf,inf,1,1,1,1,2,0,2,1,4,1,1,1
261815506,15154129,-33.9385715,18.8741563,-1.2015737,1.15179,-1.1721816,-0.23954648,0.1367903,0.0,0.32114255,-0.09544084,-0.4539592,-0.7021377,-1.5294534,0.020032808,-0.32580173,0.026677653,-2.5835044,-0.9537378,-2.2868257,0.0010599645,131.77486,0.66394943,0.28522983,0.4336286,0.13847019,0.08975887,inf,inf,inf,inf,1,1,1,1,2,0,2,1,4,1,1,1
261825510,15154129,-33.9385715,18.8741563,-1.1992087,1.1509717,-1.179966,-0.23954648,0.1367903,0.0,0.30778828,-0.089068525,-0.44577926,-0.69462466,-1.5294534,0.020032808,-0.32580173,-3.1642778,-0.02677391,-0.12916565,-2.2887015,0.0010599645,131.77486,0.6717338,0.28605592,0.43417814,0.13904984,0.089887165,inf,inf,inf,inf,1,1,1,1,2,0,2,1,4,1,1,1
261835514,15154129,-33.9385715,18.8741563,-1.1970203,1.1502335,-1.1876576,-0.23954648,0.1367903,0.0,0.30170327,-0.07749869,-0.44960773,-0.6989904,-1.5294534,0.020032808,-0.32580173,1.6833563,0.67346,0.6309567,-2.2898622,0.0010599645,131.77486,0.6794254,0.28688785,0.4347291,0.13958354,0.09000703,inf,inf,inf,inf,1,1,1,1,2,0,2,1,4,1,1,1
261845519,15154129,-33.9385715,18.8741563,-1.1947246,1.1493891,-1.1952158,-0.23954648,0.1367903,0.0,0.3030629,-0.099728346,-0.44647554,-0.6962709,-1.5294534,0.020032808,-0.32580173,-1.733733,-0.84211695,0.53468466,-2.291433,0.0010599645,131.77486,0.68698364,0.2877255,0.43528146,0.14012259,0.09012852,inf,inf,inf,inf,1,1,1,1,2,0,2,1,4,1,1,1
261855523,15154129,-33.9385715,18.8741563,-1.1926105,1.1484565,-1.2026815,-0.23954648,0.1367903,0.0,0.27645183,-0.105978,-0.45793775,-0.7080271,-1.5294534,0.020032808,-0.32580173,-1.4079536,-1.517052,-1.7070173,-2.2929294,0.0010599645,131.77486,0.69444937,0.2885689,0.4358352,0.1406746,0.09025398,inf,inf,inf,inf,1,1,1,1,2,0,2,1,4,1,1,1
261865528,15154129,-33.9385715,18.8741563,-1.1905576,1.1475558,-1.2100595,-0.23954648,0.1367903,0.0,0.2753743,-0.09295322,-0.44918635,-0.69945604,-1.5294534,0.020032808,-0.32580173,-1.017539,0.36192587,0.62193483,-2.2943141,0.0010599645,131.77486,0.70182735,0.28941813,0.4363904,0.14123535,0.090375446,inf,inf,inf,inf,1,1,1,1,2,0,2,1,4,1,1,1
261875532,15154129,-33.9385715,18.8741563,-1.1885625,1.1466094,-1.2186973,-0.23954648,0.1367903,0.0,0.27252653,-0.104601115,-0.4529558,-0.7046669,-1.5294534,0.020032808,-0.32580173,1.2535005,-0.21400633,0.66978717,-2.2957335,0.0010599645,131.77486,0.71046513,0.29027325,0.43358126,0.14178899,0.09023328,inf,inf,inf,inf,1,1,1,1,2,0,2,1,4,1,1,1
261885537,15154129,-33.9385715,18.8741563,-1.1865782,1.1455292,-1.2271597,-0.23954648,0.1367903,0.0,0.25335845,-0.11983829,-0.45158172,-0.7045695,-1.5294534,0.020032808,-0.32580173,-3.5439806,-0.7650509,-0.35742924,-2.2969065,0.0010599645,131.77486,0.71892756,0.2911342,0.43413496,0.14234644,0.09035866,inf,inf,inf,inf,1,1,1,1,2,0,2,1,4,1,1,1
261895542,15154129,-33.9385715,18.8741563,-1.1848382,1.1444254,-1.2354825,-0.23954648,0.1367903,0.0,0.23700742,-0.1212224,-0.4533835,-0.7074899,-1.5294534,0.020032808,-0.32580173,0.32592174,-1.8222528,-0.51420414,-2.2981486,0.0010599645,131.77486,0.7272503,0.29200113,0.43469012,0.14291999,0.090478055,inf,inf,inf,inf,1,1,1,1,2,0,2,1,4,1,1,1
261905546,15154129,-33.9385715,18.8741563,-1.183041,1.1433,-1.2436525,-0.23954648,0.1367903,0.0,0.24301288,-0.108886644,-0.44560403,-0.7006776,-1.5294534,0.020032808,-0.32580173,-1.0528259,2.4164531,1.0744206,-2.2998874,0.0010599645,131.77486,0.7354203,0.292874,0.43524665,0.1434673,0.09060128,inf,inf,inf,inf,1,1,1,1,2,0,2,1,4,1,1,1
261915551,15154129,-33.9385715,18.8741563,-1.1813532,1.1421416,-1.2517205,-0.23954648,0.1367903,0.0,0.22546932,-0.13122432,-0.45769528,-0.7135904,-1.5294534,0.020032808,-0.32580173,-0.5075284,-1.919114,-0.49092984,-2.3008835,0.0010599645,131.77486,0.7434884,0.29375285,0.43580464,0.1440566,0.090725616,inf,inf,inf,inf,1,1,1,1,2,0,2,1,4,1,1,1
261925555,15154129,-33.9385715,18.8741563,-1.179715,1.1408454,-1.2596593,-0.23954648,0.1367903,0.0,0.21643412,-0.13868892,-0.45367244,-0.71025,-1.5294534,0.020032808,-0.32580173,-2.3124995,-0.9463739,-0.43277737,-2.3020744,0.0010599645,131.77486,0.7514271,0.29463777,0.43636402,0.144599,0.09084473,inf,inf,inf,inf,1,1,1,1,2,0,2,1,4,1,1,1
261935560,15154129,-33.9385715,18.8741563,-1.178222,1.1396052,-1.2674733,-0.23954648,0.1367903,0.0,0.2038096,-0.12151714,-0.4542844,-0.7114107,-1.5294534,0.020032808,-0.32580173,-0.38500214,1.1315076,-0.14728177,-2.3031135,0.0010599645,131.77486,0.75924116,0.29552862,0.43692482,0.14517805,0.090967305,inf,inf,inf,inf,1,1,1,1,2,0,2,1,4,1,1,1
261945565,15154129,-33.9385715,18.8741563,-1.1767435,1.1382978,-1.2752104,-0.23954648,0.1367903,0.0,0.20447573,-0.14428362,-0.45727524,-0.71482265,-1.5294534,0.020032808,-0.32580173,-0.22019964,-1.4198029,0.6156583,-2.3043547,0.0010599645,131.77486,0.7669782,0.2964256,0.43748707,0.14576246,0.091092095,inf,inf,inf,inf,1,1,1,1,2,0,2,1,4,1,1,1
261955569,15154129,-33.9385715,18.8741563,-1.1753438,1.1368419,-1.284125,-0.23954648,0.1367903,0.0,0.18522307,-0.1543465,-0.45594203,-0.7151237,-1.5294534,0.020032808,-0.32580173,-2.1531825,-0.89893126,-0.4377144,-2.305588,0.0010599645,131.77486,0.7758928,0.2973287,0.43465963,0.14632243,0.09094399,inf,inf,inf,inf,1,1,1,1,2,0,2,1,4,1,1,1
261965573,15154129,-33.9385715,18.8741563,-1.1741034,1.1354697,-1.2928625,-0.23954648,0.1367903,0.0,0.17390835,-0.13438362,-0.45296067,-0.71360046,-1.5294534,0.020032808,-0.32580173,-0.39608654,0.6488995,-0.08344986,-2.3061337,0.0010599645,131.77486,0.78463036,0.2982379,0.43522036,0.14686255,0.09106359,inf,inf,inf,inf,1,1,1,1,2,0,2,1,4,1,1,1
261975579,15154129,-33.9385715,18.8741563,-1.1728638,1.1340153,-1.3014479,-0.23954648,0.1367903,0.0,0.17589556,-0.15688534,-0.44975212,-0.71168107,-1.5294534,0.020032808,-0.32580173,-0.305259,-0.894682,1.1973556,-2.3071437,0.0010599645,131.77486,0.7932157,0.29915306,0.4357825,0.14742757,0.09118644,inf,inf,inf,inf,1,1,1,1,2,0,2,1,4,1,1,1
261985586,15154129,-33.9385715,18.8741563,-1.1717789,1.1324146,-1.3098736,-0.23954648,0.1367903,0.0,0.14528973,-0.16484436,-0.45541713,-0.71847314,-1.5294534,0.020032808,-0.32580173,-2.440918,0.20303723,-0.65461415,-2.3083107,0.0010599645,131.77486,0.8016414,0.30007437,0.43634608,0.14801775,0.09131083,inf,inf,inf,inf,1,1,1,1,2,0,2,1,4,1,1,1
261995621,15154129,-33.9385715,18.8741563,-1.1708026,1.1308913,-1.3181349,-0.23954648,0.1367903,0.0,0.14460137,-0.15591297,-0.4470199,-0.71104765,-1.5294534,0.020032808,-0.32580173,-0.6945637,-1.3187808,-0.10483942,-2.3089218,0.0010599645,131.77486,0.8099027,0.30100194,0.4369111,0.14854793,0.09143024,inf,inf,inf,inf,1,1,1,1,2,0,2,1,4,1,1,1
262005656,15154129,-33.9385715,18.8741563,-1.1698965,1.1292832,-1.326288,-0.23954648,0.1367903,0.0,0.13618062,-0.17038597,-0.45453063,-0.71938086,-1.5294534,0.020032808,-0.32580173,0.1977349,-1.4737693,-0.27072477,-2.3098001,0.0010599645,131.77486,0.8180558,0.3019355,0.43747753,0.14911905,0.091550045,inf,inf,inf,inf,1,1,1,1,2,0,2,1,4,1,1,1
262015620,15154129,-33.9385715,18.8741563,-1.1697301,1.1270152,-1.3343105,-0.23954648,0.1367903,0.0,0.11862474,-0.17503674,-0.4526685,-0.7181973,-1.5294534,0.020032808,-0.32580173,-2.9462638,2.324892,0.9786722,-2.3107066,0.0010599645,131.77486,0.82607836,0.2852829,0.4346725,0.13925655,0.08982795,inf,inf,inf,inf,1,1,1,1,2,0,2,1,4,1,1,1
262025604,15154129,-33.9385715,18.8741563,-1.16977,1.1248307,-1.3421715,-0.23954648,0.1367903,0.0,0.10441353,-0.17693159,-0.4527886,-0.7188591,-1.5294534,0.020032808,-0.32580173,0.80813783,-1.79328,-0.5838996,-2.311095,0.0010599645,131.77486,0.8339394,0.28611198,0.43522337,0.1398335,0.08994788,inf,inf,inf,inf,1,1,1,1,2,0,2,1,4,1,1,1
262035606,15154129,-33.9385715,18.8741563,-1.1697367,1.1225556,-1.3498992,-0.23954648,0.1367903,0.0,0.10457012,-0.19281328,-0.4497273,-0.7162085,-1.5294534,0.020032808,-0.32580173,-2.1617067,-2.8503246,-0.3875331,-2.3122485,0.0010599645,131.77486,0.841667,0.286947,0.4357756,0.14034578,0.09006833,inf,inf,inf,inf,1,1,1,1,2,0,2,1,4,1,1,1
262045610,15154129,-33.9385715,18.8741563,-1.1699013,1.1201835,-1.3589965,-0.23954648,0.1367903,0.0,0.07846557,-0.18856405,-0.4458431,-0.71409994,-1.5294534,0.020032808,-0.32580173,-0.7831467,1.2089641,1.5866457,-2.3128164,0.0010599645,131.77486,0.85076433,0.28778774,0.43297768,0.14090209,0.08993107,inf,inf,inf,inf,1,1,1,1,2,0,2,1,4,1,1,1
262055614,15154129,-33.9385715,18.8741563,-1.1701156,1.1178434,-1.3678825,-0.23954648,0.1367903,0.0,0.07923834,-0.18609422,-0.4448134,-0.7146598,-1.5294534,0.020032808,-0.32580173,-0.017112218,1.5320275,0.49906057,-2.3133907,0.0010599645,131.77486,0.8596503,0.28863436,0.4335285,0.14144367,0.09005343,inf,inf,inf,inf,1,1,1,1,2,0,2,1,4,1,1,1
262065619,15154129,-33.9385715,18.8741563,-1.1703638,1.1154714,-1.3765901,-0.23954648,0.1367903,0.0,0.065066375,-0.2081337,-0.4455743,-0.7168319,-1.5294534,0.020032808,-0.32580173,-1.5775343,-3.236956,-0.34565318,-2.3141055,0.0010599645,131.77486,0.86835796,0.28948683,0.43408072,0.14199416,0.090174116,inf,inf,inf,inf,1,1,1,1,2,0,2,1,4,1,1,1
262075623,15154129,-33.9385715,18.8741563,-1.1707646,1.1129974,-1.3851209,-0.23954648,0.1367903,0.0,0.04582163,-0.2076878,-0.44255382,-0.7150512,-1.5294534,0.020032808,-0.32580173,-1.5839533,-0.79330266,-0.32390162,-2.3143256,0.0010599645,131.77486,0.8768887,0.29034522,0.43463436,0.14251262,0.09029565,inf,inf,inf,inf,1,1,1,1,2,0,2,1,4,1,1,1
262085628,15154129,-33.9385715,18.8741563,-1.1712279,1.1105384,-1.3935052,-0.23954648,0.1367903,0.0,0.04402155,-0.19989316,-0.43975967,-0.71333265,-1.5294534,0.020032808,-0.32580173,-0.39726514,1.3614458,0.97359604,-2.3150775,0.0010599645,131.77486,0.88527304,0.29120943,0.43518943,0.14310198,0.0904195,inf,inf,inf,inf,1,1,1,1,2,0,2,1,4,1,1,1
262095632,15154129,-33.9385715,18.8741563,-1.1717898,1.1080381,-1.4017767,-0.23954648,0.1367903,0.0,0.028295055,-0.21743667,-0.44912004,-0.7236111,-1.5294534,0.020032808,-0.32580173,-0.33183357,-1.1212759,-0.28629497,-2.3155823,0.0010599645,131.77486,0.8935445,0.29207972,0.43574587,0.14363827,0.090542056,inf,inf,inf,inf,1,1,1,1,2,0,2,1,4,1,1,1
262105638,15154129,-33.9385715,18.8741563,-1.1723903,1.1053944,-1.4098992,-0.23954648,0.1367903,0.0,0.016802711,-0.23282832,-0.44469005,-0.7199484,-1.5294534,0.020032808,-0.32580173,-2.727172,-1.4587071,-0.29521844,-2.3157363,0.0010599645,131.77486,0.90166706,0.29295594,0.43630376,0.14418581,0.09066038,inf,inf,inf,inf,1,1,1,1,2,0,2,1,4,1,1,1
262115653,15154129,-33.9385715,18.8741563,-1.1731482,1.1027788,-1.4178553,-0.23954648,0.1367903,0.0,0.00798162,-0.22173512,-0.43830448,-0.71418536,-1.5294534,0.020032808,-0.32580173,0.75885636,-0.5091949,0.6825204,-2.3162463,0.0010599645,131.77486,0.9096231,0.2938381,0.43686306,0.14474913,0.09078669,inf,inf,inf,inf,1,1,1,1,2,0,2,1,4,1,1,1
262125646,15154129,-33.9385715,18.8741563,-1.1738933,1.100124,-1.4256456,-0.23954648,0.1367903,0.0,0.00055971893,-0.23162073,-0.43811536,-0.7144802,-1.5294534,0.020032808,-0.32580173,-1.8894516,-0.27645436,0.31907362,-2.3166308,0.0010599645,131.77486,0.9174134,0.2947264,0.4374238,0.14529772,0.09090836,inf,inf,inf,inf,1,1,1,1,2,0,2,1,4,1,1,1
262135651,15154129,-33.9385715,18.8741563,-1.1747677,1.0973047,-1.4347521,-0.23954648,0.1367903,0.0,-0.012645157,-0.2486373,-0.43925354,-0.7173976,-1.5294534,0.020032808,-0.32580173,-0.48721904,0.3931573,0.86146814,-2.3169441,0.0010599645,131.77486,0.92651993,0.29562068,0.4345963,0.14583558,0.090757586,inf,inf,inf,inf,1,1,1,1,2,0,2,1,4,1,1,1
262145655,15154129,-33.9385715,18.8741563,-1.1757386,1.0945256,-1.4436482,-0.23954648,0.1367903,0.0,-0.025780665,-0.23860286,-0.43900836,-0.7187412,-1.5294534,0.020032808,-0.32580173,-0.9897229,0.4571078,-0.70243526,-2.3172278,0.0010599645,131.77486,0.93541604,0.29652098,0.43515548,0.14638135,0.09088414,inf,inf,inf,inf,1,1,1,1,2,0,2,1,4,1,1,1
262155662,15154129,-33.9385715,18.8741563,-1.1767198,1.0917681,-1.4523479,-0.23954648,0.1367903,0.0,-0.026419973,-0.25506163,-0.4344073,-0.7155466,-1.5294534,0.020032808,-0.32580173,-1.1667781,-4.0556097,-0.61838424,-2.3175125,0.0010599645,131.77486,0.9441157,0.2974273,0.43571612,0.14695673,0.09100434,inf,inf,inf,inf,1,1,1,1,2,0,2,1,4,1,1,1
262165665,15154129,-33.9385715,18.8741563,-1.1777998,1.0888191,-1.4609406,-0.23954648,0.1367903,0.0,-0.03786702,-0.26116762,-0.43902314,-0.7213935,-1.5294534,0.020032808,-0.32580173,0.1227457,0.34128124,0.57208616,-2.3183568,0.0010599645,131.77486,0.9527084,0.2983398,0.43627816,0.1474823,0.09112557,inf,inf,inf,inf,1,1,1,1,2,0,2,1,4,1,1,1
262175669,15154129,-33.9385715,18.8741563,-1.1789459,1.0859056,-1.4693652,-0.23954648,0.1367903,0.0,-0.054605268,-0.24516551,-0.43588558,-0.719319,-1.5294534,0.020032808,-0.32580173,-2.529659,3.3698382,0.46192235,-2.318674,0.0010599645,131.77486,0.96113306,0.29925835,0.43684164,0.1480663,0.09124973,inf,inf,inf,inf,1,1,1,1,2,0,2,1,4,1,1,1
262185674,15154129,-33.9385715,18.8741563,-1.180189,1.0830189,-1.4776638,-0.23954648,0.1367903,0.0,-0.049989678,-0.27167177,-0.4458635,-0.7301992,-1.5294534,0.020032808,-0.32580173,1.8250386,-3.7118173,-1.2981957,-2.3189816,0.0010599645,131.77486,0.9694316,0.30018312,0.43740654,0.14861745,0.091371104,inf,inf,inf,inf,1,1,1,1,2,0,2,1,4,1,1,1
262195678,15154129,-33.9385715,18.8741563,-1.1814157,1.0799347,-1.4858623,-0.23954648,0.1367903,0.0,-0.069100216,-0.2812756,-0.446564,-0.7316481,-1.5294534,0.020032808,-0.32580173,-3.222994,-1.1530929,-0.79125047,-2.3197393,0.0010599645,131.77486,0.9776301,0.30111402,0.43797284,0.14917587,0.09149248,inf,inf,inf,inf,1,1,1,1,2,0,2,1,4,1,1,1
262205695,15154129,-33.9385715,18.8741563,-1.1828239,1.0769048,-1.493924,-0.23954648,0.1367903,0.0,-0.084165454,-0.26688117,-0.44366878,-0.72935337,-1.5294534,0.020032808,-0.32580173,-1.7493038,0.092909224,-0.19517386,-2.3200924,0.0010599645,131.77486,0.98569185,0.30205116,0.4385406,0.14972673,0.09161789,inf,inf,inf,inf,1,1,1,1,2,0,2,1,4,1,1,1
262215738,15154129,-33.9385715,18.8741563,-1.1839417,1.0746402,-1.5032243,-0.23954648,0.1367903,0.0,-0.07027491,-0.2781273,-0.4503498,-0.7378019,-1.5294534,0.020032808,-0.32580173,3.1444104,-0.87104076,0.7041906,-2.3210578,0.0010599645,131.77486,0.9949921,0.28537434,0.43237597,0.1397593,0.08962694,inf,inf,inf,inf,1,1,1,1,2,0,2,1,4,1,1,1
262225692,15154129,-33.9385715,18.8741563,-1.1850331,1.072237,-1.5123513,-0.23954648,0.1367903,0.0,-0.09907461,-0.2851982,-0.4592374,-0.7482638,-1.5294534,0.020032808,-0.32580173,-4.5086365,1.7768172,-0.97738874,-2.3217933,0.0010599645,131.77486,1.0041192,0.28620595,0.43292385,0.1402924,0.08974983,inf,inf,inf,inf,1,1,1,1,2,0,2,1,4,1,1,1
262235696,15154129,-33.9385715,18.8741563,-1.1863525,1.0698246,-1.521389,-0.23954648,0.1367903,0.0,-0.10177033,-0.28852898,-0.46214733,-0.7525623,-1.5294534,0.020032808,-0.32580173,1.1536536,-0.8576384,-0.5175467,-2.321973,0.0010599645,131.77486,1.0131569,0.28704342,0.43347317,0.14084002,0.08987489,inf,inf,inf,inf,1,1,1,1,2,0,2,1,4,1,1,1
262245701,15154129,-33.9385715,18.8741563,-1.1876184,1.0674095,-1.5303013,-0.23954648,0.1367903,0.0,-0.09599797,-0.2887969,-0.46742663,-0.75905246,-1.5294534,0.020032808,-0.32580173,0.8461099,-1.8541659,-0.97901183,-2.3224533,0.0010599645,131.77486,1.0220692,0.28788674,0.43402386,0.14137292,0.089995906,inf,inf,inf,inf,1,1,1,1,2,0,2,1,4,1,1,1
262255706,15154129,-33.9385715,18.8741563,-1.188944,1.064917,-1.5391304,-0.23954648,0.1367903,0.0,-0.1238806,-0.29293776,-0.4759106,-0.7685765,-1.5294534,0.020032808,-0.32580173,-4.1868157,-0.62104595,-1.1021686,-2.3227878,0.0010599645,131.77486,1.0308983,0.2887359,0.43457597,0.14190257,0.090117715,inf,inf,inf,inf,1,1,1,1,2,0,2,1,4,1,1,1
262265710,15154129,-33.9385715,18.8741563,-1.1904275,1.0623232,-1.5478989,-0.23954648,0.1367903,0.0,-0.11493329,-0.29744172,-0.47610387,-0.76964635,-1.5294534,0.020032808,-0.32580173,2.4313526,1.113887,1.6338927,-2.3234496,0.0010599645,131.77486,1.0396667,0.28959095,0.4351295,0.14247954,0.090242185,inf,inf,inf,inf,1,1,1,1,2,0,2,1,4,1,1,1
