timestamp,ref_timestamp,ref_lat,ref_lon,x,y,z,delta_xy[0],delta_xy[1],delta_z,vx,vy,vz,z_deriv,delta_vxy[0],delta_vxy[1],delta_vz,ax,ay,az,heading,delta_heading,ref_alt,dist_bottom,eph,epv,evh,evv,vxy_max,vz_max,hagl_min,hagl_max,xy_valid,z_valid,v_xy_valid,v_z_valid,xy_reset_counter,z_reset_counter,vxy_reset_counter,vz_reset_counter,heading_reset_counter,xy_global,z_global,dist_bottom_valid
31489273,16344161,-33.9385866,18.8741493,-0.8012516,0.87896997,-0.3661029,0.067668386,-0.028586566,0.0,-0.09250681,-0.022267569,0.02335978,0.041148476,0.109349184,-0.007055687,0.07540404,-0.28504702,0.24365875,-0.10282726,-2.912613,0.06717596,131.26224,0.1,0.30827853,0.44973773,0.14999428,0.10532883,inf,inf,inf,inf,1,1,1,1,2,0,2,1,3,1,1,1
31499276,16344161,-33.9385866,18.8741493,-0.80262065,0.87875557,-0.36595464,0.067668386,-0.028586566,0.0,-0.094595656,-0.019898953,0.022670701,0.040205173,0.109349184,-0.007055687,0.07540404,-0.18474291,0.16185509,-0.06189462,-2.914737,0.06717596,131.26224,0.1,0.30919617,0.45039576,0.1505338,0.10550424,inf,inf,inf,inf,1,1,1,1,2,0,2,1,3,1,1,1
31509278,16344161,-33.9385866,18.8741493,-0.8039911,0.8785565,-0.36572158,0.067668386,-0.028586566,0.0,-0.09619738,-0.018762149,0.021956723,0.03933415,0.109349184,-0.007055687,0.07540404,-0.15481953,0.06362714,-0.03188639,-2.9172313,0.06717596,131.26224,0.1,0.31012017,0.4473561,0.15107676,0.10534086,inf,inf,inf,inf,1,1,1,1,2,0,2,1,3,1,1,1
31519285,16344161,-33.9385866,18.8741493,-0.80535865,0.8783673,-0.36549672,0.067668386,-0.028586566,0.0,-0.097076185,-0.01737199,0.021474442,0.03869442,0.109349184,-0.007055687,0.07540404,-0.07593606,0.114892334,-0.029659618,-2.9200318,0.06717596,131.26224,0.1,0.3110506,0.44801274,0.15162402,0.10551655,inf,inf,inf,inf,1,1,1,1,2,0,2,1,3,1,1,1
31529285,16344161,-33.9385866,18.8741493,-0.8067161,0.8781882,-0.36528003,0.067668386,-0.028586566,0.0,-0.09743019,-0.016483724,0.020920986,0.037983198,0.109349184,-0.007055687,0.07540404,-0.030179292,0.04111869,-0.03117291,-2.922899,0.06717596,131.26224,0.1,0.3119874,0.44867134,0.1521717,0.105692305,inf,inf,inf,inf,1,1,1,1,2,0,2,1,3,1,1,1
31539288,16344161,-33.9385866,18.8741493,-0.8080586,0.87800956,-0.36506772,0.067668386,-0.028586566,0.0,-0.096685484,-0.016662994,0.020888578,0.03779406,0.109349184,-0.007055687,0.07540404,0.14107189,-0.014919004,0.024991574,-2.9256802,0.06717596,131.26224,0.1,0.31293067,0.4493319,0.1527148,0.105867706,inf,inf,inf,inf,1,1,1,1,2,0,2,1,3,1,1,1
31549293,16344161,-33.9385866,18.8741493,-0.8093766,0.8778279,-0.36485428,0.067668386,-0.028586566,0.0,-0.095583275,-0.016764527,0.021603635,0.03835218,0.109349184,-0.007055687,0.07540404,0.130747,-0.027342524,0.0922877,-2.9281328,0.06717596,131.26224,0.1,0.31388038,0.4499946,0.15325566,0.10604349,inf,inf,inf,inf,1,1,1,1,2,0,2,1,3,1,1,1
31559344,16344161,-33.9385866,18.8741493,-0.8106683,0.87763876,-0.36463293,0.067668386,-0.028586566,0.0,-0.093372956,-0.017632376,0.022284277,0.03887723,0.109349184,-0.007055687,0.07540404,0.2329161,-0.10028199,0.0486738,-2.9301991,0.06717596,131.26224,0.1,0.31483656,0.4506592,0.15379632,0.106219016,inf,inf,inf,inf,1,1,1,1,2,0,2,1,3,1,1,1
31569303,16344161,-33.9385866,18.8741493,-0.81191593,0.8774458,-0.36441368,0.067668386,-0.028586566,0.0,-0.09122034,-0.01723472,0.022154232,0.03859148,0.109349184,-0.007055687,0.07540404,0.21839815,0.068215236,-0.013613188,-2.9319031,0.06717596,131.26224,0.1,0.3157992,0.4513259,0.15434039,0.10639501,inf,inf,inf,inf,1,1,1,1,2,0,2,1,3,1,1,1
31579302,16344161,-33.9385866,18.8741493,-0.8131309,0.8772589,-0.36419925,0.067668386,-0.028586566,0.0,-0.08874869,-0.016179169,0.021186803,0.03747011,0.109349184,-0.007055687,0.07540404,0.23812746,0.09110983,-0.11049696,-2.9333265,0.06717596,131.26224,0.1,0.31676835,0.45199457,0.15488796,0.10657082,inf,inf,inf,inf,1,1,1,1,2,0,2,1,3,1,1,1
31589306,16344161,-33.9385866,18.8741493,-0.81460875,0.87724274,-0.3638895,0.067668386,-0.028586566,0.0,-0.08670496,-0.016034435,0.02034873,0.03658933,0.109349184,-0.007055687,0.07540404,0.18730484,-0.02314547,-0.050952997,-2.934489,0.06717596,131.26224,0.1,0.2984879,0.4478601,0.14395276,0.10386414,inf,inf,inf,inf,1,1,1,1,2,0,2,1,3,1,1,1
31599309,16344161,-33.9385866,18.8741493,-0.8160438,0.8772196,-0.36346534,0.067668386,-0.028586566,0.0,-0.08466721,-0.016644955,0.020285126,0.036603272,0.109349184,-0.007055687,0.07540404,0.20151204,-0.13161024,0.0005389763,-2.9353087,0.06717596,131.26224,0.1,0.2993418,0.44486612,0.1444804,0.103714965,inf,inf,inf,inf,1,1,1,1,2,0,2,1,3,1,1,1
31609362,16344161,-33.9385866,18.8741493,-0.8174404,0.8771869,-0.3630554,0.067668386,-0.028586566,0.0,-0.082617186,-0.016690819,0.018993685,0.03537925,0.109349184,-0.007055687,0.07540404,0.20406067,-0.076840766,-0.1638491,-2.9359589,0.06717596,131.26224,0.1,0.30020183,0.44550663,0.14500427,0.10388964,inf,inf,inf,inf,1,1,1,1,2,0,2,1,3,1,1,1
31619346,16344161,-33.9385866,18.8741493,-0.81879026,0.8771469,-0.362672,0.067668386,-0.028586566,0.0,-0.0808629,-0.017466392,0.017271658,0.033714924,0.109349184,-0.007055687,0.07540404,0.14936504,-0.1967649,-0.16912073,-2.9366984,0.06717596,131.26224,0.1,0.30106798,0.44614914,0.14553094,0.10406438,inf,inf,inf,inf,1,1,1,1,2,0,2,1,3,1,1,1
31629324,16344161,-33.9385866,18.8741493,-0.82010365,0.87708217,-0.36231574,0.067668386,-0.028586566,0.0,-0.07944381,-0.020573307,0.015115136,0.031607956,0.109349184,-0.007055687,0.07540404,0.13191064,-0.4091438,-0.21142867,-2.9373558,0.06717596,131.26224,0.1,0.30194026,0.44679356,0.14605866,0.104238875,inf,inf,inf,inf,1,1,1,1,2,0,2,1,3,1,1,1
31639323,16344161,-33.9385866,18.8741493,-0.82138395,0.87698776,-0.3619907,0.067668386,-0.028586566,0.0,-0.07765664,-0.021857494,0.012625063,0.029158473,0.109349184,-0.007055687,0.07540404,0.21182247,-0.13552685,-0.24955952,-2.9379177,0.06717596,131.26224,0.1,0.30281872,0.44744003,0.14659493,0.10441373,inf,inf,inf,inf,1,1,1,1,2,0,2,1,3,1,1,1
31649326,16344161,-33.9385866,18.8741493,-0.82262605,0.87687516,-0.3616952,0.067668386,-0.028586566,0.0,-0.0757842,-0.02389583,0.010900399,0.027466547,0.109349184,-0.007055687,0.07540404,0.17641956,-0.349286,-0.1283954,-2.9386854,0.06717596,131.26224,0.1,0.30370337,0.44808838,0.1471383,0.10458835,inf,inf,inf,inf,1,1,1,1,2,0,2,1,3,1,1,1
31659331,16344161,-33.9385866,18.8741493,-0.8238309,0.87672555,-0.3614197,0.067668386,-0.028586566,0.0,-0.073653966,-0.026831554,0.010178781,0.026769407,0.109349184,-0.007055687,0.07540404,0.2466474,-0.15242222,-0.027732244,-2.9392397,0.06717596,131.26224,0.1,0.30459428,0.44873878,0.14768751,0.10476336,inf,inf,inf,inf,1,1,1,1,2,0,2,1,3,1,1,1
31669333,16344161,-33.9385866,18.8741493,-0.8249943,0.8765593,-0.3611541,0.067668386,-0.028586566,0.0,-0.0714076,-0.027607322,0.009875065,0.026484119,0.109349184,-0.007055687,0.07540404,0.19843303,-0.18240169,-0.026837662,-2.9398057,0.06717596,131.26224,0.1,0.30549148,0.44939113,0.14823341,0.10493806,inf,inf,inf,inf,1,1,1,1,2,0,2,1,3,1,1,1
31679337,16344161,-33.9385866,18.8741493,-0.8261246,0.87635684,-0.36089808,0.067668386,-0.028586566,0.0,-0.07015488,-0.03245718,0.009638558,0.026258394,0.109349184,-0.007055687,0.07540404,0.15533319,-0.45520964,-0.031081306,-2.9403787,0.06717596,131.26224,0.1,0.30639496,0.4500455,0.14878005,0.105113156,inf,inf,inf,inf,1,1,1,1,2,0,2,1,3,1,1,1
31689340,16344161,-33.9385866,18.8741493,-0.8272242,0.87613535,-0.36054122,0.067668386,-0.028586566,0.0,-0.06910343,-0.030808896,0.00869847,0.025436185,0.109349184,-0.007055687,0.07540404,0.035954542,0.15249856,-0.1212159,-2.9408474,0.06717596,131.26224,0.1,0.3073048,0.44701082,0.14932586,0.1049525,inf,inf,inf,inf,1,1,1,1,2,0,2,1,3,1,1,1
31699344,16344161,-33.9385866,18.8741493,-0.8282976,0.8758986,-0.36020803,0.067668386,-0.028586566,0.0,-0.06726676,-0.03523651,0.0072408677,0.024084415,0.109349184,-0.007055687,0.07540404,0.28735638,-0.5784073,-0.12890257,-2.94165,0.06717596,131.26224,0.1,0.30822095,0.44766378,0.14987287,0.10512782,inf,inf,inf,inf,1,1,1,1,2,0,2,1,3,1,1,1
31709348,16344161,-33.9385866,18.8741493,-0.829333,0.87565404,-0.35989654,0.067668386,-0.028586566,0.0,-0.065749355,-0.0302555,0.0061714854,0.023109308,0.109349184,-0.007055687,0.07540404,0.025166694,0.6171334,-0.13212772,-2.9424558,0.06717596,131.26224,0.1,0.30914348,0.44831878,0.1504171,0.10530324,inf,inf,inf,inf,1,1,1,1,2,0,2,1,3,1,1,1
31719351,16344161,-33.9385866,18.8741493,-0.83034015,0.8754218,-0.35960406,0.067668386,-0.028586566,0.0,-0.06291808,-0.03369155,0.005299555,0.022322424,0.109349184,-0.007055687,0.07540404,0.49969503,-0.5496721,-0.062968224,-2.9436395,0.06717596,131.26224,0.1,0.31007236,0.44897568,0.15095794,0.1054784,inf,inf,inf,inf,1,1,1,1,2,0,2,1,3,1,1,1
31729353,16344161,-33.9385866,18.8741493,-0.83129454,0.87518877,-0.35932845,0.067668386,-0.028586566,0.0,-0.060595598,-0.028266478,0.004484682,0.021581847,0.109349184,-0.007055687,0.07540404,-0.051845036,0.6073289,-0.09551386,-2.9448977,0.06717596,131.26224,0.1,0.31100762,0.44963467,0.15150169,0.10565404,inf,inf,inf,inf,1,1,1,1,2,0,2,1,3,1,1,1
31739357,16344161,-33.9385866,18.8741493,-0.83221847,0.874974,-0.35906982,0.067668386,-0.028586566,0.0,-0.056565,-0.029320603,0.0031648572,0.020327747,0.109349184,-0.007055687,0.07540404,0.7289936,-0.03406454,-0.1955802,-2.946171,0.06717596,131.26224,0.1,0.31194928,0.45029557,0.15204626,0.10582943,inf,inf,inf,inf,1,1,1,1,2,0,2,1,3,1,1,1
31749373,16344161,-33.9385866,18.8741493,-0.8330855,0.8747789,-0.35883152,0.067668386,-0.028586566,0.0,-0.05521914,-0.025443194,0.0026880873,0.019906778,0.109349184,-0.007055687,0.07540404,-0.23476101,0.07032258,-0.0078294845,-2.9476044,0.06717596,131.26224,0.1,0.31289735,0.4509586,0.15259898,0.10600532,inf,inf,inf,inf,1,1,1,1,2,0,2,1,3,1,1,1
31759364,16344161,-33.9385866,18.8741493,-0.8339212,0.8745968,-0.35861006,0.067668386,-0.028586566,0.0,-0.050075173,-0.021879893,0.00090582465,0.018171439,0.109349184,-0.007055687,0.07540404,0.76703393,0.8968191,-0.23307893,-2.9487476,0.06717596,131.26224,0.1,0.31385186,0.45162353,0.15315099,0.10618095,inf,inf,inf,inf,1,1,1,1,2,0,2,1,3,1,1,1
31769367,16344161,-33.9385866,18.8741493,-0.83471453,0.8744415,-0.35837662,0.067668386,-0.028586566,0.0,-0.050612852,-0.024150163,0.0006258877,0.017960895,0.109349184,-0.007055687,0.07540404,-0.104599364,-0.660944,-0.04672082,-2.9500072,0.06717596,131.26224,0.1,0.3148129,0.44856074,0.15370058,0.10601146,inf,inf,inf,inf,1,1,1,1,2,0,2,1,3,1,1,1
31779371,16344161,-33.9385866,18.8741493,-0.83547235,0.8742944,-0.3581641,0.067668386,-0.028586566,0.0,-0.04624654,-0.018298063,-0.0013680005,0.016027287,0.109349184,-0.007055687,0.07540404,0.21523382,0.40500015,-0.15399578,-2.9511218,0.06717596,131.26224,0.1,0.31578037,0.44922423,0.1542591,0.106187366,inf,inf,inf,inf,1,1,1,1,2,0,2,1,3,1,1,1
31789375,16344161,-33.9385866,18.8741493,-0.8363369,0.87401664,-0.3581288,0.067668386,-0.028586566,0.0,-0.043997705,-0.018128365,-0.0035969599,0.013692236,0.109349184,-0.007055687,0.07540404,0.45130652,0.598799,-0.33352196,-2.9518285,0.06717596,131.26224,0.1,0.29755747,0.44518605,0.14343111,0.10351077,inf,inf,inf,inf,1,1,1,1,2,0,2,1,3,1,1,1
31799380,16344161,-33.9385866,18.8741493,-0.83715975,0.8737507,-0.3581231,0.067668386,-0.028586566,0.0,-0.042254493,-0.020926936,-0.0060407524,0.011139851,0.109349184,-0.007055687,0.07540404,0.21910818,-0.63642913,-0.24146,-2.9524994,0.06717596,131.26224,0.1,0.29841065,0.44582504,0.14396663,0.10368548,inf,inf,inf,inf,1,1,1,1,2,0,2,1,3,1,1,1
31809382,16344161,-33.9385866,18.8741493,-0.83793503,0.8734987,-0.35814446,0.067668386,-0.028586566,0.0,-0.039662573,-0.016662793,-0.008031327,0.009039744,0.109349184,-0.007055687,0.07540404,-0.05946798,-0.12578258,-0.08136459,-2.9529314,0.06717596,131.26224,0.1,0.29927,0.4464659,0.14450622,0.10386005,inf,inf,inf,inf,1,1,1,1,2,0,2,1,3,1,1,1
31819385,16344161,-33.9385866,18.8741493,-0.83866143,0.8732567,-0.3581897,0.067668386,-0.028586566,0.0,-0.033599164,-0.013029169,-0.010922768,0.006036493,0.109349184,-0.007055687,0.07540404,0.7051581,1.033269,-0.32087716,-2.9528027,0.06717596,131.26224,0.1,0.3001355,0.4471088,0.14504366,0.10403489,inf,inf,inf,inf,1,1,1,1,2,0,2,1,3,1,1,1
31829389,16344161,-33.9385866,18.8741493,-0.8393297,0.873034,-0.35824743,0.067668386,-0.028586566,0.0,-0.03031039,-0.0138892485,-0.01094869,0.0058974517,0.109349184,-0.007055687,0.07540404,0.5973486,0.42461243,-0.2114488,-2.9524007,0.06717596,131.26224,0.1,0.30100715,0.44775364,0.1455761,0.104209475,inf,inf,inf,inf,1,1,1,1,2,0,2,1,3,1,1,1
31839392,16344161,-33.9385866,18.8741493,-0.8399436,0.87284005,-0.35831332,0.067668386,-0.028586566,0.0,-0.027521428,-0.013672357,-0.010316426,0.0064145736,0.109349184,-0.007055687,0.07540404,0.18343063,-0.7103777,0.18042809,-2.9518309,0.06717596,131.26224,0.1,0.301885,0.44840047,0.14610991,0.104384325,inf,inf,inf,inf,1,1,1,1,2,0,2,1,3,1,1,1
31849395,16344161,-33.9385866,18.8741493,-0.84050405,0.87267315,-0.35838443,0.067668386,-0.028586566,0.0,-0.02393967,-0.00882834,-0.011204977,0.0054100957,0.109349184,-0.007055687,0.07540404,-0.022464085,-0.27287924,0.10910415,-2.951026,0.06717596,131.26224,0.1,0.30276904,0.4490492,0.14664114,0.10455893,inf,inf,inf,inf,1,1,1,1,2,0,2,1,3,1,1,1
31859399,16344161,-33.9385866,18.8741493,-0.84101325,0.8725307,-0.3585305,0.067668386,-0.028586566,0.0,-0.019162986,-0.0035098244,-0.011290667,0.0051363935,0.109349184,-0.007055687,0.07540404,0.2690433,0.8523408,0.09784784,-2.9498801,0.06717596,131.26224,0.1,0.3036593,0.4460334,0.1471825,0.1044037,inf,inf,inf,inf,1,1,1,1,2,0,2,1,3,1,1,1
31869402,16344161,-33.9385866,18.8741493,-0.8414865,0.87240887,-0.35866517,0.067668386,-0.028586566,0.0,-0.017117452,-0.0013236895,-0.011431307,0.004809642,0.109349184,-0.007055687,0.07540404,0.46608165,1.2413012,-0.40363044,-2.9485495,0.06717596,131.26224,0.1,0.3045558,0.44668078,0.14772154,0.10457862,inf,inf,inf,inf,1,1,1,1,2,0,2,1,3,1,1,1
31879405,16344161,-33.9385866,18.8741493,-0.8419262,0.8723083,-0.3588092,0.067668386,-0.028586566,0.0,-0.014607353,-0.0014947836,-0.012015818,0.0040404503,0.109349184,-0.007055687,0.07540404,0.5887889,0.583016,-0.23478353,-2.9473593,0.06717596,131.26224,0.1,0.30545855,0.44733024,0.14826806,0.10475367,inf,inf,inf,inf,1,1,1,1,2,0,2,1,3,1,1,1
31889409,16344161,-33.9385866,18.8741493,-0.8423361,0.8722243,-0.3589573,0.067668386,-0.028586566,0.0,-0.014609275,-0.0028622532,-0.011597352,0.0042756717,0.109349184,-0.007055687,0.07540404,0.15216257,-0.49881113,-0.01744068,-2.946469,0.06717596,131.26224,0.1,0.3063676,0.44798166,0.14880739,0.10492896,inf,inf,inf,inf,1,1,1,1,2,0,2,1,3,1,1,1
31899412,16344161,-33.9385866,18.8741493,-0.842713,0.87214994,-0.3591134,0.067668386,-0.028586566,0.0,-0.012027148,-0.0031732973,-0.012288313,0.0034039505,0.109349184,-0.007055687,0.07540404,0.072989345,-1.0875684,0.1603259,-2.9459903,0.06717596,131.26224,0.1,0.30728298,0.44863504,0.14935407,0.10510388,inf,inf,inf,inf,1,1,1,1,2,0,2,1,3,1,1,1
31909416,16344161,-33.9385866,18.8741493,-0.84305036,0.8720823,-0.35928586,0.067668386,-0.028586566,0.0,-0.009440804,-0.0018015325,-0.013560454,0.0019524687,0.109349184,-0.007055687,0.07540404,0.0026005139,-0.9612025,0.34710416,-2.9458115,0.06717596,131.26224,0.1,0.30820468,0.44929045,0.14989904,0.10527938,inf,inf,inf,inf,1,1,1,1,2,0,2,1,3,1,1,1
31919419,16344161,-33.9385866,18.8741493,-0.84334457,0.87202406,-0.35946527,0.067668386,-0.028586566,0.0,-0.0061496617,0.0005681324,-0.014816076,0.0005208318,0.109349184,-0.007055687,0.07540404,-0.04094539,-0.47079644,0.17840482,-2.9458256,0.06717596,131.26224,0.1,0.30913267,0.44994777,0.15044612,0.10545431,inf,inf,inf,inf,1,1,1,1,2,0,2,1,3,1,1,1
31929454,16344161,-33.9385866,18.8741493,-0.8435937,0.8719781,-0.35964787,0.067668386,-0.028586566,0.0,-0.0019370933,0.0039385958,-0.015024004,0.00013826086,0.109349184,-0.007055687,0.07540404,0.18154219,0.3092214,0.07983311,-2.946,0.06717596,131.26224,0.1,0.3100671,0.45060718,0.15099818,0.10562997,inf,inf,inf,inf,1,1,1,1,2,0,2,1,3,1,1,1
31939426,16344161,-33.9385866,18.8741493,-0.84380245,0.8719435,-0.35982397,0.067668386,-0.028586566,0.0,0.0015866826,0.006579116,-0.014720992,0.00026944705,0.109349184,-0.007055687,0.07540404,0.46733737,0.9874269,-0.034136735,-2.9462848,0.06717596,131.26224,0.1,0.31100786,0.45126852,0.15154143,0.10580491,inf,inf,inf,inf,1,1,1,1,2,0,2,1,3,1,1,1
31949430,16344161,-33.9385866,18.8741493,-0.84397745,0.8719176,-0.36023304,0.067668386,-0.028586566,0.0,0.0028993054,0.0073969206,-0.015046864,-0.00047103682,0.109349184,-0.007055687,0.07540404,0.25120294,1.132346,-0.47337785,-2.9467566,0.06717596,131.26224,0.1,0.31195503,0.4482109,0.15209956,0.10563825,inf,inf,inf,inf,1,1,1,1,2,0,2,1,3,1,1,1
31959432,16344161,-33.9385866,18.8741493,-0.84413236,0.8718989,-0.3606294,0.067668386,-0.028586566,0.0,0.00329063,0.0067472146,-0.014257112,-8.272863e-05,0.109349184,-0.007055687,0.07540404,0.09021455,0.768529,-0.42311147,-2.9472933,0.06717596,131.26224,0.1,0.31290865,0.44887078,0.15265483,0.10581372,inf,inf,inf,inf,1,1,1,1,2,0,2,1,3,1,1,1
31969436,16344161,-33.9385866,18.8741493,-0.8442808,0.8718775,-0.36101082,0.067668386,-0.028586566,0.0,0.0027651615,0.0054231873,-0.013093369,0.00069127255,0.109349184,-0.007055687,0.07540404,0.0806061,0.39068574,-0.28817746,-2.9481287,0.06717596,131.26224,0.1,0.31386873,0.44953275,0.15321064,0.10598952,inf,inf,inf,inf,1,1,1,1,2,0,2,1,3,1,1,1
31979440,16344161,-33.9385866,18.8741493,-0.8444342,0.8718551,-0.36137906,0.067668386,-0.028586566,0.0,0.00023266996,0.004020099,-0.012744374,0.0006618849,0.109349184,-0.007055687,0.07540404,-0.19081421,-0.15662667,-0.2925748,-2.9491997,0.06717596,131.26224,0.1,0.31483534,0.45019674,0.15377104,0.10616534,inf,inf,inf,inf,1,1,1,1,2,0,2,1,3,1,1,1
31989443,16344161,-33.9385866,18.8741493,-0.84479666,0.87170637,-0.36163405,0.067668386,-0.028586566,0.0,-0.0026007728,0.0017122955,-0.011869036,0.0012755066,0.109349184,-0.007055687,0.07540404,-0.52374816,-0.75602466,-0.1574455,-2.9504004,0.06717596,131.26224,0.1,0.29662845,0.44614258,0.14301702,0.10349032,inf,inf,inf,inf,1,1,1,1,2,0,2,1,3,1,1,1
31999446,16344161,-33.9385866,18.8741493,-0.8451632,0.8715539,-0.36188045,0.067668386,-0.028586566,0.0,-0.005242398,3.0959345e-06,-0.011966984,0.00092190085,0.109349184,-0.007055687,0.07540404,-0.78118,-1.1558559,-0.30699706,-2.9517531,0.06717596,131.26224,0.1,0.2974813,0.44678202,0.14354202,0.10366463,inf,inf,inf,inf,1,1,1,1,2,0,2,1,3,1,1,1
32009451,16344161,-33.9385866,18.8741493,-0.84553754,0.87139595,-0.36212543,0.067668386,-0.028586566,0.0,-0.007540485,-0.00077319966,-0.011355386,0.0012843531,0.109349184,-0.007055687,0.07540404,-0.81292796,-1.1993303,-0.024275983,-2.9530358,0.06717596,131.26224,0.1,0.29834017,0.4474233,0.14406541,0.10383867,inf,inf,inf,inf,1,1,1,1,2,0,2,1,3,1,1,1
32019454,16344161,-33.9385866,18.8741493,-0.84592044,0.8712264,-0.3623697,0.067668386,-0.028586566,0.0,-0.0067425533,-0.0010409517,-0.009983651,0.002412652,0.109349184,-0.007055687,0.07540404,0.116859235,-0.7640332,0.5634427,-2.9540195,0.06717596,131.26224,0.1,0.29920515,0.44806662,0.14462881,0.10401327,inf,inf,inf,inf,1,1,1,1,2,0,2,1,3,1,1,1
32029457,16344161,-33.9385866,18.8741493,-0.8462943,0.87104625,-0.36292872,0.067668386,-0.028586566,0.0,-0.0054054926,-0.0017101438,-0.009718095,0.002119029,0.109349184,-0.007055687,0.07540404,0.7991928,-0.39434794,0.78774005,-2.9548001,0.06717596,131.26224,0.1,0.30007625,0.44506913,0.14524369,0.10386315,inf,inf,inf,inf,1,1,1,1,2,0,2,1,3,1,1,1
32039461,16344161,-33.9385866,18.8741493,-0.84666014,0.8708707,-0.36349455,0.067668386,-0.028586566,0.0,-0.009259644,-0.0016602053,-0.018047303,-0.0067497618,0.109349184,-0.007055687,0.07540404,0.018514087,-0.449225,-0.8606152,-2.9556396,0.06717596,131.26224,0.1,0.30095348,0.44571114,0.14591268,0.10403833,inf,inf,inf,inf,1,1,1,1,2,0,2,1,3,1,1,1
32049465,16344161,-33.9385866,18.8741493,-0.8469909,0.87069315,-0.36407003,0.067668386,-0.028586566,0.0,-0.005581809,0.002771493,-0.018098688,-0.007321077,0.109349184,-0.007055687,0.07540404,-0.12496134,1.1357648,-0.75504047,-2.956592,0.06717596,131.26224,0.1,0.3018369,0.44635504,0.14663488,0.10421371,inf,inf,inf,inf,1,1,1,1,2,0,2,1,3,1,1,1
32059467,16344161,-33.9385866,18.8741493,-0.8472866,0.8705293,-0.36467686,0.067668386,-0.028586566,0.0,-0.0017738864,-0.000120244295,-0.019664722,-0.0093887355,0.109349184,-0.007055687,0.07540404,0.49573493,0.2716672,0.55189383,-2.9573545,0.06717596,131.26224,0.1,0.30272657,0.447001,0.14740643,0.10438936,inf,inf,inf,inf,1,1,1,1,2,0,2,1,3,1,1,1
32069522,16344161,-33.9385866,18.8741493,-0.847524,0.8703976,-0.36529174,0.067668386,-0.028586566,0.0,0.0051521757,0.0046985936,-0.0244953,-0.0147032365,0.109349184,-0.007055687,0.07540404,1.0944608,0.22489639,-0.25851327,-2.9578233,0.06717596,131.26224,0.1,0.30362248,0.44764894,0.14823586,0.10456563,inf,inf,inf,inf,1,1,1,1,2,0,2,1,3,1,1,1
32079504,16344161,-33.9385866,18.8741493,-0.8476998,0.8702818,-0.36592537,0.067668386,-0.028586566,0.0,0.005699176,0.005259031,-0.027731635,-0.018404985,0.109349184,-0.007055687,0.07540404,-0.0451982,0.32461596,-0.33219692,-2.958881,0.06717596,131.26224,0.1,0.30452472,0.44829878,0.14912052,0.10474202,inf,inf,inf,inf,1,1,1,1,2,0,2,1,3,1,1,1
32089485,16344161,-33.9385866,18.8741493,-0.84782094,0.8702005,-0.36659327,0.067668386,-0.028586566,0.0,0.014601533,0.009897632,-0.03395528,-0.025077539,0.109349184,-0.007055687,0.07540404,0.9254986,0.4673,-0.66146237,-2.9592183,0.06717596,131.26224,0.1,0.30543342,0.44895065,0.15005751,0.10491903,inf,inf,inf,inf,1,1,1,1,2,0,2,1,3,1,1,1
32099481,16344161,-33.9385866,18.8741493,-0.84785736,0.87014276,-0.36726952,0.067668386,-0.028586566,0.0,0.019541182,0.01069112,-0.031732462,-0.023286786,0.109349184,-0.007055687,0.07540404,0.33705184,0.34989744,0.1941783,-2.9598055,0.06717596,131.26224,0.1,0.30634856,0.44960448,0.15104102,0.10509613,inf,inf,inf,inf,1,1,1,1,2,0,2,1,3,1,1,1
32109484,16344161,-33.9385866,18.8741493,-0.8478368,0.87010944,-0.36799654,0.067668386,-0.028586566,0.0,0.024711719,0.0124716675,-0.047085494,-0.039056465,0.109349184,-0.007055687,0.07540404,0.52996695,0.11453919,-1.7294521,-2.9599297,0.06717596,131.26224,0.10011262,0.30727032,0.45026034,0.15206873,0.10527368,inf,inf,inf,inf,1,1,1,1,2,0,2,1,3,1,1,1
32119500,16344161,-33.9385866,18.8741493,-0.8477592,0.8700966,-0.36922872,0.067668386,-0.028586566,0.0,0.028753737,0.015039248,-0.050007448,-0.042784456,0.109349184,-0.007055687,0.07540404,0.40660602,0.39981142,0.45166177,-2.9600933,0.06717596,131.26224,0.101344794,0.30819866,0.44722188,0.15314654,0.10511442,inf,inf,inf,inf,1,1,1,1,2,0,2,1,3,1,1,1
32129491,16344161,-33.9385866,18.8741493,-0.8476104,0.8701089,-0.37038606,0.067668386,-0.028586566,0.0,0.03810004,0.01610341,-0.041952968,-0.035503764,0.109349184,-0.007055687,0.07540404,1.126756,0.07852071,0.57345915,-2.9597297,0.06717596,131.26224,0.10250214,0.30913377,0.4478763,0.15426582,0.105292514,inf,inf,inf,inf,1,1,1,1,2,0,2,1,3,1,1,1
32139494,16344161,-33.9385866,18.8741493,-0.847354,0.8701357,-0.37151882,0.067668386,-0.028586566,0.0,0.046402816,0.017510163,-0.051185712,-0.04547789,0.109349184,-0.007055687,0.07540404,0.6429995,0.15538107,-1.431138,-2.9595194,0.06717596,131.26224,0.103634894,0.31007564,0.4485327,0.15542814,0.10547067,inf,inf,inf,inf,1,1,1,1,2,0,2,1,3,1,1,1
32149503,16344161,-33.9385866,18.8741493,-0.8470317,0.8701987,-0.37276897,0.067668386,-0.028586566,0.0,0.050807904,0.022506487,-0.065933265,-0.06093679,0.109349184,-0.007055687,0.07540404,0.529451,0.42505905,-1.2110901,-2.9593253,0.06717596,131.26224,0.10488504,0.3110245,0.44919115,0.15664041,0.10564936,inf,inf,inf,inf,1,1,1,1,2,0,2,1,3,1,1,1
32159501,16344161,-33.9385866,18.8741493,-0.8466534,0.87029743,-0.3740958,0.067668386,-0.028586566,0.0,0.055286434,0.02331128,-0.07123314,-0.06691901,0.109349184,-0.007055687,0.07540404,0.37851524,-0.22258742,-0.32051513,-2.9589334,0.06717596,131.26224,0.10621187,0.31198037,0.4498516,0.15789355,0.10582839,inf,inf,inf,inf,1,1,1,1,2,0,2,1,3,1,1,1
32169504,16344161,-33.9385866,18.8741493,-0.8462345,0.87037736,-0.3754058,0.067668386,-0.028586566,0.0,0.05729452,0.01976429,-0.06647906,-0.062817976,0.109349184,-0.007055687,0.07540404,0.13001777,-0.39613587,0.76262784,-2.9586647,0.06717596,131.26224,0.10752186,0.31294334,0.45051396,0.15919363,0.1060077,inf,inf,inf,inf,1,1,1,1,2,0,2,1,3,1,1,1
32179508,16344161,-33.9385866,18.8741493,-0.84579587,0.87042594,-0.37663126,0.067668386,-0.028586566,0.0,0.057961475,0.017462533,-0.06123924,-0.058204226,0.109349184,-0.007055687,0.07540404,0.032065395,-0.16883591,0.23469082,-2.958544,0.06717596,131.26224,0.10874733,0.31391367,0.45117843,0.16053413,0.10618761,inf,inf,inf,inf,1,1,1,1,2,0,2,1,3,1,1,1
32189512,16344161,-33.9385866,18.8741493,-0.8453446,0.87028754,-0.3778374,0.067668386,-0.028586566,0.0,0.059146747,0.019398212,-0.067697614,-0.06525546,0.109349184,-0.007055687,0.07540404,0.11491392,0.1562466,-0.8904697,-2.9581368,0.06717596,131.26224,0.10995346,0.2957515,0.44710806,0.14935537,0.1035147,inf,inf,inf,inf,1,1,1,1,2,0,2,1,3,1,1,1
32199515,16344161,-33.9385866,18.8741493,-0.84485877,0.87016124,-0.37911245,0.067668386,-0.028586566,0.0,0.06313085,0.018328192,-0.07774663,-0.07587247,0.109349184,-0.007055687,0.07540404,0.46472675,-0.14098486,-1.0156674,-2.957588,0.06717596,131.26224,0.111228526,0.29659924,0.4477479,0.15070732,0.10369401,inf,inf,inf,inf,1,1,1,1,2,0,2,1,3,1,1,1
32209518,16344161,-33.9385866,18.8741493,-0.84430933,0.87003255,-0.3810462,0.067668386,-0.028586566,0.0,0.06981064,0.017418167,-0.079832196,-0.07911287,0.109349184,-0.007055687,0.07540404,0.72974586,-0.12657,0.2419009,-2.957197,0.06717596,131.26224,0.11316228,0.29745346,0.4447547,0.15213796,0.103551954,inf,inf,inf,inf,1,1,1,1,2,0,2,1,3,1,1,1
32219522,16344161,-33.9385866,18.8741493,-0.8436703,0.8698938,-0.38293505,0.067668386,-0.028586566,0.0,0.07918537,0.014858474,-0.078835234,-0.079220586,0.109349184,-0.007055687,0.07540404,0.9683505,-0.24903913,0.037216924,-2.9568045,0.06717596,131.26224,0.11505112,0.2983145,0.44539323,0.15357731,0.103732325,inf,inf,inf,inf,1,1,1,1,2,0,2,1,3,1,1,1
32229525,16344161,-33.9385866,18.8741493,-0.8429253,0.86974186,-0.38478407,0.067668386,-0.028586566,0.0,0.08902436,0.012849206,-0.079134524,-0.08057468,0.109349184,-0.007055687,0.07540404,0.9913044,-0.24951898,0.021597069,-2.956223,0.06717596,131.26224,0.116900146,0.2991824,0.44603366,0.15505487,0.10391311,inf,inf,inf,inf,1,1,1,1,2,0,2,1,3,1,1,1
32239529,16344161,-33.9385866,18.8741493,-0.8420771,0.86957175,-0.3866083,0.067668386,-0.028586566,0.0,0.09676646,0.009952611,-0.08171184,-0.084160216,0.109349184,-0.007055687,0.07540404,0.5234624,-0.3266808,-0.3431842,-2.9553275,0.06717596,131.26224,0.118724376,0.3000573,0.44667614,0.15659343,0.104095,inf,inf,inf,inf,1,1,1,1,2,0,2,1,3,1,1,1
32249533,16344161,-33.9385866,18.8741493,-0.84119487,0.86937666,-0.38843963,0.067668386,-0.028586566,0.0,0.09436495,0.0071589504,-0.0872227,-0.090634264,0.109349184,-0.007055687,0.07540404,-0.46071455,-0.17617096,-0.59288365,-2.9541852,0.06717596,131.26224,0.1205557,0.30093947,0.44732058,0.1581573,0.10427662,inf,inf,inf,inf,1,1,1,1,2,0,2,1,3,1,1,1
32259536,16344161,-33.9385866,18.8741493,-0.84035987,0.8691734,-0.3903127,0.067668386,-0.028586566,0.0,0.08710298,0.0064698947,-0.09690092,-0.10123181,0.109349184,-0.007055687,0.07540404,-0.6795882,-0.07213514,-1.0335217,-2.9529774,0.06717596,131.26224,0.122428775,0.301829,0.4479669,0.15977028,0.10445935,inf,inf,inf,inf,1,1,1,1,2,0,2,1,3,1,1,1
32269540,16344161,-33.9385866,18.8741493,-0.8395303,0.86896473,-0.39221635,0.067668386,-0.028586566,0.0,0.09269456,0.0038194743,-0.09771208,-0.10292043,0.109349184,-0.007055687,0.07540404,0.78756243,-0.46122637,0.25423247,-2.9518893,0.06717596,131.26224,0.12433243,0.3027262,0.4486153,0.1613828,0.10464176,inf,inf,inf,inf,1,1,1,1,2,0,2,1,3,1,1,1
32279543,16344161,-33.9385866,18.8741493,-0.83861583,0.86869997,-0.39405647,0.067668386,-0.028586566,0.0,0.1003973,-0.00602518,-0.09244254,-0.09848662,0.109349184,-0.007055687,0.07540404,0.56392646,-1.1882087,0.4945934,-2.950621,0.06717596,131.26224,0.12617254,0.30363104,0.4492656,0.16310093,0.10482584,inf,inf,inf,inf,1,1,1,1,2,0,2,1,3,1,1,1
32289546,16344161,-33.9385866,18.8741493,-0.8376284,0.8683707,-0.39676017,0.067668386,-0.028586566,0.0,0.10663688,-0.007417013,-0.092417836,-0.10019069,0.109349184,-0.007055687,0.07540404,0.5671926,0.20116866,-0.07874297,-2.949089,0.06717596,131.26224,0.12887624,0.30454406,0.44624603,0.1648035,0.10467828,inf,inf,inf,inf,1,1,1,1,2,0,2,1,3,1,1,1
32299553,16344161,-33.9385866,18.8741493,-0.836556,0.8680617,-0.39941764,0.067668386,-0.028586566,0.0,0.11547455,-0.006996512,-0.0945575,-0.103979036,0.109349184,-0.007055687,0.07540404,0.75644433,-0.38843054,-0.10916126,-2.9474318,0.06717596,131.26224,0.13153371,0.30546516,0.44689497,0.16648974,0.10486179,inf,inf,inf,inf,1,1,1,1,2,0,2,1,3,1,1,1
32309561,16344161,-33.9385866,18.8741493,-0.83540505,0.86766905,-0.40203416,0.067668386,-0.028586566,0.0,0.12153755,-0.024756191,-0.09599713,-0.10699152,0.109349184,-0.007055687,0.07540404,0.5708977,-2.1228566,-0.07331107,-2.9456666,0.06717596,131.26224,0.13415024,0.30639446,0.44754598,0.1682786,0.10504731,inf,inf,inf,inf,1,1,1,1,2,0,2,1,3,1,1,1
32319557,16344161,-33.9385866,18.8741493,-0.8341431,0.8671475,-0.40456787,0.067668386,-0.028586566,0.0,0.13747555,-0.029066056,-0.089799576,-0.10229223,0.109349184,-0.007055687,0.07540404,1.7368847,0.18612187,0.7005204,-2.9437985,0.06717596,131.26224,0.13668394,0.3073324,0.4481989,0.1701222,0.105233245,inf,inf,inf,inf,1,1,1,1,2,0,2,1,3,1,1,1
32329560,16344161,-33.9385866,18.8741493,-0.83274806,0.8666397,-0.40701804,0.067668386,-0.028586566,0.0,0.14223418,-0.02934447,-0.09267428,-0.10659473,0.109349184,-0.007055687,0.07540404,-0.2933433,-0.7071861,-0.71848524,-2.9419818,0.06717596,131.26224,0.13913411,0.30827934,0.44885394,0.17195359,0.10541916,inf,inf,inf,inf,1,1,1,1,2,0,2,1,3,1,1,1
32339564,16344161,-33.9385866,18.8741493,-0.83141524,0.86604714,-0.40949613,0.067668386,-0.028586566,0.0,0.12850499,-0.041329272,-0.10242169,-0.117701955,0.109349184,-0.007055687,0.07540404,-1.2196196,-0.7603543,-0.702497,-2.9406924,0.06717596,131.26224,0.1416122,0.3092353,0.44951093,0.17376974,0.10560461,inf,inf,inf,inf,1,1,1,1,2,0,2,1,3,1,1,1
32349567,16344161,-33.9385866,18.8741493,-0.8300771,0.86545336,-0.41193795,0.067668386,-0.028586566,0.0,0.14593574,-0.033100415,-0.09424465,-0.11081806,0.109349184,-0.007055687,0.07540404,2.6559153,0.7527875,1.3876429,-2.939499,0.06717596,131.26224,0.14405403,0.31020027,0.45016986,0.17561185,0.10579025,inf,inf,inf,inf,1,1,1,1,2,0,2,1,3,1,1,1
32359570,16344161,-33.9385866,18.8741493,-0.82851857,0.86484605,-0.41423076,0.067668386,-0.028586566,0.0,0.16467911,-0.047017932,-0.08651363,-0.10431706,0.109349184,-0.007055687,0.07540404,1.4205091,-1.8920727,0.5123538,-2.9384198,0.06717596,131.26224,0.14634684,0.31117457,0.4508309,0.17753111,0.10597758,inf,inf,inf,inf,1,1,1,1,2,0,2,1,3,1,1,1
32369574,16344161,-33.9385866,18.8741493,-0.8268212,0.86415255,-0.41641885,0.067668386,-0.028586566,0.0,0.17364492,-0.044812288,-0.08280609,-0.10177647,0.109349184,-0.007055687,0.07540404,0.6841884,1.0053687,0.17877199,-2.9373827,0.06717596,131.26224,0.14853492,0.31215852,0.45149386,0.17948565,0.10616583,inf,inf,inf,inf,1,1,1,1,2,0,2,1,3,1,1,1
32379577,16344161,-33.9385866,18.8741493,-0.82511884,0.86349535,-0.41979107,0.067668386,-0.028586566,0.0,0.16317086,-0.048914727,-0.09422139,-0.11550185,0.109349184,-0.007055687,0.07540404,-1.582749,-1.3260792,-1.2030976,-2.9364944,0.06717596,131.26224,0.15190715,0.31315255,0.4484323,0.18143435,0.10601118,inf,inf,inf,inf,1,1,1,1,2,0,2,1,3,1,1,1
32389581,16344161,-33.9385866,18.8741493,-0.8232302,0.86270463,-0.42281404,0.067668386,-0.028586566,0.0,0.17324524,-0.05083865,-0.086121276,-0.1092903,0.109349184,-0.007055687,0.07540404,2.2571971,0.76751554,1.5110593,-2.9358807,0.06717596,131.26224,0.15493011,0.29485568,0.44445434,0.1666341,0.10335055,inf,inf,inf,inf,1,1,1,1,2,0,2,1,3,1,1,1
32399584,16344161,-33.9385866,18.8741493,-0.8211244,0.8619399,-0.425648,0.067668386,-0.028586566,0.0,0.19467771,-0.054354347,-0.07739212,-0.10235768,0.109349184,-0.007055687,0.07540404,1.06625,-1.2228636,0.29100382,-2.935224,0.06717596,131.26224,0.15776408,0.29569858,0.44508955,0.16848573,0.10353762,inf,inf,inf,inf,1,1,1,1,2,0,2,1,3,1,1,1
32409588,16344161,-33.9385866,18.8741493,-0.81894743,0.8610993,-0.4284062,0.067668386,-0.028586566,0.0,0.19265021,-0.059512027,-0.08256723,-0.109238535,0.109349184,-0.007055687,0.07540404,-0.16528611,0.21334526,-0.5454413,-2.934456,0.06717596,131.26224,0.16052228,0.2965499,0.44572663,0.17036845,0.103725016,inf,inf,inf,inf,1,1,1,1,2,0,2,1,3,1,1,1
32419592,16344161,-33.9385866,18.8741493,-0.8168086,0.8602419,-0.43117628,0.067668386,-0.028586566,0.0,0.18474291,-0.06781391,-0.09353358,-0.12182521,0.109349184,-0.007055687,0.07540404,-1.1725096,-1.8444806,-1.176617,-2.9335704,0.06717596,131.26224,0.16329235,0.29740992,0.44636574,0.17228565,0.10391258,inf,inf,inf,inf,1,1,1,1,2,0,2,1,3,1,1,1
32429594,16344161,-33.9385866,18.8741493,-0.8147107,0.8592721,-0.4339171,0.067668386,-0.028586566,0.0,0.18923463,-0.07152411,-0.08550434,-0.115333945,0.109349184,-0.007055687,0.07540404,1.0579727,0.97255373,1.5779747,-2.932636,0.06717596,131.26224,0.16603318,0.298279,0.4470068,0.17424141,0.10410067,inf,inf,inf,inf,1,1,1,1,2,0,2,1,3,1,1,1
32439598,16344161,-33.9385866,18.8741493,-0.81250495,0.8583961,-0.43647534,0.067668386,-0.028586566,0.0,0.19868334,-0.062894456,-0.077434845,-0.108720966,0.109349184,-0.007055687,0.07540404,0.12256975,-0.29858407,0.1037523,-2.931624,0.06717596,131.26224,0.16859141,0.2991574,0.44764978,0.17618622,0.104289316,inf,inf,inf,inf,1,1,1,1,2,0,2,1,3,1,1,1
32449602,16344161,-33.9385866,18.8741493,-0.8102724,0.85746133,-0.4389506,0.067668386,-0.028586566,0.0,0.20136863,-0.07548385,-0.074519895,-0.107186124,0.109349184,-0.007055687,0.07540404,0.83362424,-0.62719065,0.89208543,-2.9308546,0.06717596,131.26224,0.17106667,0.30004528,0.4482948,0.17812721,0.1044783,inf,inf,inf,inf,1,1,1,1,2,0,2,1,3,1,1,1
32459605,16344161,-33.9385866,18.8741493,-0.8079155,0.856492,-0.44264916,0.067668386,-0.028586566,0.0,0.21677908,-0.0767976,-0.06632001,-0.101671115,0.109349184,-0.007055687,0.07540404,0.80141807,-0.6573108,0.37569776,-2.9297574,0.06717596,131.26224,0.17476523,0.30094272,0.44529346,0.1801121,0.10434239,inf,inf,inf,inf,1,1,1,1,2,0,2,1,3,1,1,1
32469608,16344161,-33.9385866,18.8741493,-0.8055358,0.8554871,-0.44622907,0.067668386,-0.028586566,0.0,0.21034046,-0.07701365,-0.06860263,-0.106506854,0.109349184,-0.007055687,0.07540404,-0.47255757,0.7753429,-0.07198651,-2.9288983,0.06717596,131.26224,0.17834514,0.3018501,0.44593713,0.18212639,0.10453295,inf,inf,inf,inf,1,1,1,1,2,0,2,1,3,1,1,1
32479612,16344161,-33.9385866,18.8741493,-0.80320764,0.8545285,-0.44974837,0.067668386,-0.028586566,0.0,0.20353015,-0.077940285,-0.07711084,-0.1174391,0.109349184,-0.007055687,0.07540404,-1.0321566,-1.1568947,-1.1887022,-2.927857,0.06717596,131.26224,0.18186444,0.30276778,0.44658276,0.18414444,0.10472365,inf,inf,inf,inf,1,1,1,1,2,0,2,1,3,1,1,1
32489662,16344161,-33.9385866,18.8741493,-0.8008926,0.8534825,-0.45318913,0.067668386,-0.028586566,0.0,0.21210961,-0.0843162,-0.06527125,-0.107901156,0.109349184,-0.007055687,0.07540404,1.7849395,0.40478092,2.0987675,-2.9267385,0.06717596,131.26224,0.18530521,0.3036959,0.44723046,0.18616655,0.10491485,inf,inf,inf,inf,1,1,1,1,2,0,2,1,3,1,1,1
32499619,16344161,-33.9385866,18.8741493,-0.79841626,0.8524999,-0.45635068,0.067668386,-0.028586566,0.0,0.23216493,-0.07691875,-0.049643476,-0.094455056,0.109349184,-0.007055687,0.07540404,1.4572649,-0.05024093,0.8613923,-2.9255984,0.06717596,131.26224,0.18846676,0.30463466,0.44788006,0.18823868,0.10510615,inf,inf,inf,inf,1,1,1,1,2,0,2,1,3,1,1,1
32509629,16344161,-33.9385866,18.8741493,-0.79584044,0.85147935,-0.45936272,0.067668386,-0.028586566,0.0,0.23214687,-0.08562631,-0.04846533,-0.095345095,0.109349184,-0.007055687,0.07540404,-0.024091883,-0.36612865,0.2936298,-2.9246087,0.06717596,131.26224,0.19147879,0.30558452,0.44853175,0.19034247,0.105297476,inf,inf,inf,inf,1,1,1,1,2,0,2,1,3,1,1,1
32519627,16344161,-33.9385866,18.8741493,-0.79325294,0.85042214,-0.46227166,0.067668386,-0.028586566,0.0,0.23281929,-0.091917954,-0.04901778,-0.09785632,0.109349184,-0.007055687,0.07540404,-0.34179115,-1.4335244,-0.35053608,-2.923516,0.06717596,131.26224,0.19438773,0.30654582,0.44918543,0.19241977,0.105489925,inf,inf,inf,inf,1,1,1,1,2,0,2,1,3,1,1,1
32529686,16344161,-33.9385866,18.8741493,-0.7906624,0.849266,-0.46510303,0.067668386,-0.028586566,0.0,0.23314835,-0.09492538,-0.044682138,-0.09537192,0.109349184,-0.007055687,0.07540404,0.30003116,0.9242061,1.0918078,-2.9225795,0.06717596,131.26224,0.1972191,0.30751857,0.44984105,0.19450168,0.10568322,inf,inf,inf,inf,1,1,1,1,2,0,2,1,3,1,1,1
32539669,16344161,-33.9385866,18.8741493,-0.7880534,0.8481857,-0.46779904,0.067668386,-0.028586566,0.0,0.23456356,-0.08939554,-0.04545432,-0.09789392,0.109349184,-0.007055687,0.07540404,-0.67974156,-0.2468083,-0.7363163,-2.921447,0.06717596,131.26224,0.19991511,0.30850303,0.45049876,0.1966224,0.10587664,inf,inf,inf,inf,1,1,1,1,2,0,2,1,3,1,1,1
32549647,16344161,-33.9385866,18.8741493,-0.78545624,0.84705657,-0.4718277,0.067668386,-0.028586566,0.0,0.2389457,-0.09739921,-0.04223501,-0.09772692,0.109349184,-0.007055687,0.07540404,1.2324736,-0.0033159603,1.204504,-2.920368,0.06717596,131.26224,0.20394376,0.30949953,0.4474563,0.19879897,0.105733305,inf,inf,inf,inf,1,1,1,1,2,0,2,1,3,1,1,1
32559641,16344161,-33.9385866,18.8741493,-0.78271466,0.8459098,-0.47562093,0.067668386,-0.028586566,0.0,0.25596592,-0.101269335,-0.029314112,-0.08770247,0.109349184,-0.007055687,0.07540404,1.2145187,-1.1189677,0.9250469,-2.9192128,0.06717596,131.26224,0.207737,0.3105087,0.4481126,0.20093323,0.105928056,inf,inf,inf,inf,1,1,1,1,2,0,2,1,3,1,1,1
32569643,16344161,-33.9385866,18.8741493,-0.7798766,0.84471667,-0.47919556,0.067668386,-0.028586566,0.0,0.25936106,-0.099024594,-0.020685628,-0.08181805,0.109349184,-0.007055687,0.07540404,0.15253322,1.1271586,0.8815925,-2.9183028,0.06717596,131.26224,0.21131164,0.3115304,0.4487709,0.2030807,0.10612423,inf,inf,inf,inf,1,1,1,1,2,0,2,1,3,1,1,1
32579650,16344161,-33.9385866,18.8741493,-0.7770851,0.84355974,-0.48265788,0.067668386,-0.028586566,0.0,0.24440017,-0.104171984,-0.032563694,-0.09629561,0.109349184,-0.007055687,0.07540404,-2.0858538,-1.4850053,-1.7138689,-2.9173758,0.06717596,131.26224,0.21477395,0.31256497,0.44943127,0.20528145,0.106320634,inf,inf,inf,inf,1,1,1,1,2,0,2,1,3,1,1,1
32589656,16344161,-33.9385866,18.8741493,-0.7742845,0.8420539,-0.48546985,0.067668386,-0.028586566,0.0,0.24846688,-0.10269256,-0.022942724,-0.08852687,0.109349184,-0.007055687,0.07540404,1.1659491,1.0082903,1.7867814,-2.9162557,0.06717596,131.26224,0.21758592,0.29397544,0.44543394,0.18485138,0.10360558,inf,inf,inf,inf,1,1,1,1,2,0,2,1,3,1,1,1
32599655,16344161,-33.9385866,18.8741493,-0.7713703,0.84058905,-0.48806328,0.067668386,-0.028586566,0.0,0.26253796,-0.106099054,-0.011138841,-0.07846751,0.109349184,-0.007055687,0.07540404,1.2399119,-0.89361745,1.127004,-2.915044,0.06717596,131.26224,0.22017935,0.2948215,0.44606975,0.18684226,0.10379889,inf,inf,inf,inf,1,1,1,1,2,0,2,1,3,1,1,1
32609663,16344161,-33.9385866,18.8741493,-0.7683267,0.8391468,-0.49044764,0.067668386,-0.028586566,0.0,0.2723075,-0.09737005,0.00065962016,-0.06830988,0.109349184,-0.007055687,0.07540404,0.48860738,0.90257967,0.86716646,-2.9136453,0.06717596,131.26224,0.22256371,0.2956782,0.4467075,0.18885396,0.103993155,inf,inf,inf,inf,1,1,1,1,2,0,2,1,3,1,1,1
32619660,16344161,-33.9385866,18.8741493,-0.76529384,0.8376757,-0.49273333,0.067668386,-0.028586566,0.0,0.26333502,-0.1150244,-0.0057793115,-0.0762879,0.109349184,-0.007055687,0.07540404,-0.85270935,-1.7880311,-0.43553206,-2.9125316,0.06717596,131.26224,0.2248494,0.29654583,0.44734713,0.19088157,0.104188494,inf,inf,inf,inf,1,1,1,1,2,0,2,1,3,1,1,1
32629667,16344161,-33.9385866,18.8741493,-0.76227117,0.8361596,-0.49492234,0.067668386,-0.028586566,0.0,0.26866478,-0.10729522,0.0023209308,-0.06963079,0.109349184,-0.007055687,0.07540404,0.33588997,0.966602,0.6411665,-2.9113407,0.06717596,131.26224,0.22703841,0.29742482,0.4479888,0.19291556,0.10438473,inf,inf,inf,inf,1,1,1,1,2,0,2,1,3,1,1,1
32639667,16344161,-33.9385866,18.8741493,-0.7592275,0.8346804,-0.49836683,0.067668386,-0.028586566,0.0,0.2701264,-0.10800173,0.005856886,-0.0688342,0.109349184,-0.007055687,0.07540404,0.42292947,0.5567734,0.85990506,-2.910406,0.06717596,131.26224,0.2304829,0.2983153,0.44499162,0.19498666,0.10425959,inf,inf,inf,inf,1,1,1,1,2,0,2,1,3,1,1,1
32649673,16344161,-33.9385866,18.8741493,-0.75612104,0.8332724,-0.5016001,0.067668386,-0.028586566,0.0,0.2768128,-0.10230712,0.014339721,-0.06294063,0.109349184,-0.007055687,0.07540404,0.10279368,-0.2918613,0.17248547,-2.9094627,0.06717596,131.26224,0.23371616,0.29921776,0.44563204,0.1970862,0.10445789,inf,inf,inf,inf,1,1,1,1,2,0,2,1,3,1,1,1
32659674,16344161,-33.9385866,18.8741493,-0.7529622,0.83180314,-0.5046797,0.067668386,-0.028586566,0.0,0.2863401,-0.11471127,0.020053528,-0.0596701,0.109349184,-0.007055687,0.07540404,1.5215429,-0.49965996,1.3794619,-2.90861,0.06717596,131.26224,0.23679575,0.30013263,0.44627437,0.1991453,0.10465596,inf,inf,inf,inf,1,1,1,1,2,0,2,1,3,1,1,1
32669677,16344161,-33.9385866,18.8741493,-0.74968123,0.83030766,-0.50754935,0.067668386,-0.028586566,0.0,0.29333717,-0.116543986,0.025222506,-0.05680522,0.109349184,-0.007055687,0.07540404,-0.3350013,-0.88159204,-0.37377897,-2.9075058,0.06717596,131.26224,0.23966542,0.30105987,0.44691876,0.20121285,0.10485469,inf,inf,inf,inf,1,1,1,1,2,0,2,1,3,1,1,1
32679681,16344161,-33.9385866,18.8741493,-0.7464167,0.8287962,-0.5103306,0.067668386,-0.028586566,0.0,0.29037032,-0.11193324,0.022102773,-0.06209319,0.109349184,-0.007055687,0.07540404,0.13825506,1.3730195,0.13277411,-2.906564,0.06717596,131.26224,0.24244669,0.3019996,0.44756508,0.20331945,0.1050546,inf,inf,inf,inf,1,1,1,1,2,0,2,1,3,1,1,1
32689684,16344161,-33.9385866,18.8741493,-0.743163,0.82735324,-0.51302284,0.067668386,-0.028586566,0.0,0.28879637,-0.115121275,0.018658059,-0.067577265,0.109349184,-0.007055687,0.07540404,-0.260869,-1.5216867,-0.55505115,-2.9055128,0.06717596,131.26224,0.24513891,0.3029525,0.44821346,0.20544252,0.10525548,inf,inf,inf,inf,1,1,1,1,2,0,2,1,3,1,1,1
32699687,16344161,-33.9385866,18.8741493,-0.7398161,0.8258474,-0.515556,0.067668386,-0.028586566,0.0,0.31228557,-0.11595232,0.03717748,-0.05097307,0.109349184,-0.007055687,0.07540404,2.8756566,0.82728505,2.3971176,-2.9045074,0.06717596,131.26224,0.24767205,0.3039188,0.44886383,0.20756665,0.10545669,inf,inf,inf,inf,1,1,1,1,2,0,2,1,3,1,1,1
32709691,16344161,-33.9385866,18.8741493,-0.73628914,0.82434046,-0.5178505,0.067668386,-0.028586566,0.0,0.3179297,-0.12317774,0.04066573,-0.049278334,0.109349184,-0.007055687,0.07540404,-0.31724465,-1.0592004,-0.23602515,-2.9035258,0.06717596,131.26224,0.24996659,0.30489877,0.44951618,0.20971535,0.10565877,inf,inf,inf,inf,1,1,1,1,2,0,2,1,3,1,1,1
32719697,16344161,-33.9385866,18.8741493,-0.7327733,0.82282704,-0.5211155,0.067668386,-0.028586566,0.0,0.31296808,-0.11793659,0.038800728,-0.05389807,0.109349184,-0.007055687,0.07540404,-0.795157,0.38037327,-0.35343087,-2.9025283,0.06717596,131.26224,0.25323156,0.3058928,0.44649252,0.21185848,0.10553084,inf,inf,inf,inf,1,1,1,1,2,0,2,1,3,1,1,1
32729698,16344161,-33.9385866,18.8741493,-0.7293441,0.821265,-0.52429664,0.067668386,-0.028586566,0.0,0.30679047,-0.13184886,0.037090696,-0.058203038,0.109349184,-0.007055687,0.07540404,0.21127583,-1.0029311,0.7951817,-2.901583,0.06717596,131.26224,0.2564127,0.30690107,0.44714352,0.2139918,0.10573417,inf,inf,inf,inf,1,1,1,1,2,0,2,1,3,1,1,1
32739701,16344161,-33.9385866,18.8741493,-0.7257896,0.8196922,-0.5272363,0.067668386,-0.028586566,0.0,0.33323216,-0.12552726,0.054902542,-0.04283415,0.109349184,-0.007055687,0.07540404,2.4728231,0.2598518,1.2870135,-2.9000533,0.06717596,131.26224,0.25935236,0.30792373,0.44779664,0.21614572,0.105938084,inf,inf,inf,inf,1,1,1,1,2,0,2,1,3,1,1,1
32749705,16344161,-33.9385866,18.8741493,-0.7220667,0.81807804,-0.5299545,0.067668386,-0.028586566,0.0,0.34024101,-0.13582559,0.059867203,-0.04016413,0.109349184,-0.007055687,0.07540404,0.449889,-0.28348827,0.5608817,-2.8985267,0.06717596,131.26224,0.26207057,0.30896115,0.4484517,0.2183519,0.10614384,inf,inf,inf,inf,1,1,1,1,2,0,2,1,3,1,1,1
32759708,16344161,-33.9385866,18.8741493,-0.7183385,0.8164335,-0.53255624,0.067668386,-0.028586566,0.0,0.33164558,-0.14082335,0.050564688,-0.051620618,0.109349184,-0.007055687,0.07540404,-1.6864486,-1.27771,-1.7238166,-2.8971677,0.06717596,131.26224,0.2646723,0.31001407,0.44910887,0.22052167,0.106349304,inf,inf,inf,inf,1,1,1,1,2,0,2,1,3,1,1,1
32769757,16344161,-33.9385866,18.8741493,-0.7146782,0.8146964,-0.5351154,0.067668386,-0.028586566,0.0,0.3335983,-0.14444272,0.055146776,-0.0490548,0.109349184,-0.007055687,0.07540404,1.3117447,0.8214642,1.6559047,-2.8960128,0.06717596,131.26224,0.2672315,0.3110823,0.44976804,0.22269453,0.106555454,inf,inf,inf,inf,1,1,1,1,2,0,2,1,3,1,1,1
32779717,16344161,-33.9385866,18.8741493,-0.7116012,0.8128902,-0.53731614,0.067668386,-0.028586566,0.0,0.347449,-0.14462477,0.063086055,-0.04284103,0.109349184,-0.007055687,0.07540404,1.2079448,-0.7363108,0.6104346,-2.894902,0.06717596,131.26224,0.26943222,0.29237503,0.44578364,0.1972201,0.10376402,inf,inf,inf,inf,1,1,1,1,2,0,2,1,3,1,1,1
32789726,16344161,-33.9385866,18.8741493,-0.708357,0.8110935,-0.5393291,0.067668386,-0.028586566,0.0,0.3589621,-0.14048241,0.07147348,-0.036061123,0.109349184,-0.007055687,0.07540404,0.68438387,0.3324006,0.47631106,-2.8936896,0.06717596,131.26224,0.27144518,0.29322383,0.44641817,0.19920722,0.10396623,inf,inf,inf,inf,1,1,1,1,2,0,2,1,3,1,1,1
32799722,16344161,-33.9385866,18.8741493,-0.705125,0.8092241,-0.54128957,0.067668386,-0.028586566,0.0,0.34712166,-0.16098824,0.058223758,-0.050802357,0.109349184,-0.007055687,0.07540404,-0.777577,-1.8952814,-0.90516376,-2.892543,0.06717596,131.26224,0.27340564,0.29408538,0.4470546,0.20118421,0.10416727,inf,inf,inf,inf,1,1,1,1,2,0,2,1,3,1,1,1
32809725,16344161,-33.9385866,18.8741493,-0.7019094,0.8072942,-0.5441365,0.067668386,-0.028586566,0.0,0.34761915,-0.15772206,0.057884723,-0.05347002,0.109349184,-0.007055687,0.07540404,-0.47159415,-0.10191047,-0.60923594,-2.8914776,0.06717596,131.26224,0.2762526,0.2949597,0.44407493,0.20317535,0.10405328,inf,inf,inf,inf,1,1,1,1,2,0,2,1,3,1,1,1
32819729,16344161,-33.9385866,18.8741493,-0.69865,0.80540115,-0.54686123,0.067668386,-0.028586566,0.0,0.3579025,-0.1493457,0.06449214,-0.049042374,0.109349184,-0.007055687,0.07540404,1.4687924,1.6983931,1.3467704,-2.8904967,0.06717596,131.26224,0.2789773,0.29584715,0.44471017,0.20516796,0.10425524,inf,inf,inf,inf,1,1,1,1,2,0,2,1,3,1,1,1
32829733,16344161,-33.9385866,18.8741493,-0.69532156,0.80355406,-0.549449,0.067668386,-0.028586566,0.0,0.35542047,-0.16017616,0.056618817,-0.05895455,0.109349184,-0.007055687,0.07540404,-0.47340408,-2.0736065,-1.1287729,-2.8895638,0.06717596,131.26224,0.2815651,0.29674798,0.44534743,0.20716897,0.104457945,inf,inf,inf,inf,1,1,1,1,2,0,2,1,3,1,1,1
32839736,16344161,-33.9385866,18.8741493,-0.6919548,0.801614,-0.5519322,0.067668386,-0.028586566,0.0,0.3612917,-0.166364,0.062147222,-0.0553276,0.109349184,-0.007055687,0.07540404,-0.052227084,-0.87466735,0.08945514,-2.888621,0.06717596,131.26224,0.2840483,0.29766247,0.4459866,0.20918196,0.1046608,inf,inf,inf,inf,1,1,1,1,2,0,2,1,3,1,1,1
32849739,16344161,-33.9385866,18.8741493,-0.6885795,0.79960084,-0.5543166,0.067668386,-0.028586566,0.0,0.36171514,-0.16969663,0.062388886,-0.0568571,0.109349184,-0.007055687,0.07540404,0.781185,0.8779459,1.1267184,-2.8877063,0.06717596,131.26224,0.28643265,0.29859096,0.44662786,0.21121897,0.10486488,inf,inf,inf,inf,1,1,1,1,2,0,2,1,3,1,1,1
32859743,16344161,-33.9385866,18.8741493,-0.685194,0.79764307,-0.55657697,0.067668386,-0.028586566,0.0,0.3542055,-0.16813819,0.05551987,-0.06537021,0.109349184,-0.007055687,0.07540404,-1.3847921,-0.84381276,-1.613284,-2.8865175,0.06717596,131.26224,0.28869304,0.29953384,0.44727105,0.21326144,0.1050694,inf,inf,inf,inf,1,1,1,1,2,0,2,1,3,1,1,1
32869746,16344161,-33.9385866,18.8741493,-0.6818187,0.795677,-0.5587615,0.067668386,-0.028586566,0.0,0.3616874,-0.16828667,0.06298137,-0.059432365,0.109349184,-0.007055687,0.07540404,0.91014034,0.026401548,0.9677634,-2.8850656,0.06717596,131.26224,0.29087755,0.30049148,0.44791633,0.21527478,0.10527187,inf,inf,inf,inf,1,1,1,1,2,0,2,1,3,1,1,1
32879750,16344161,-33.9385866,18.8741493,-0.6783576,0.7936339,-0.56081545,0.067668386,-0.028586566,0.0,0.37201804,-0.1819056,0.0656085,-0.05821314,0.109349184,-0.007055687,0.07540404,1.6611011,-0.63951904,1.1599139,-2.8835552,0.06717596,131.26224,0.29293153,0.30146372,0.44856358,0.21731888,0.105476096,inf,inf,inf,inf,1,1,1,1,2,0,2,1,3,1,1,1
32889754,16344161,-33.9385866,18.8741493,-0.67475927,0.7915814,-0.5626767,0.067668386,-0.028586566,0.0,0.3768964,-0.18025398,0.07190418,-0.053212482,0.109349184,-0.007055687,0.07540404,-0.97885454,-0.76886183,-0.5693694,-2.881943,0.06717596,131.26224,0.2947928,0.30245113,0.44921282,0.21938099,0.10568087,inf,inf,inf,inf,1,1,1,1,2,0,2,1,3,1,1,1
32899757,16344161,-33.9385866,18.8741493,-0.6712006,0.7895199,-0.5654833,0.067668386,-0.028586566,0.0,0.37092417,-0.17641187,0.07739749,-0.049972072,0.109349184,-0.007055687,0.07540404,-0.3749788,1.2619796,1.0685931,-2.8804207,0.06717596,131.26224,0.29759935,0.3034541,0.44619352,0.2214438,0.105559014,inf,inf,inf,inf,1,1,1,1,2,0,2,1,3,1,1,1
32909760,16344161,-33.9385866,18.8741493,-0.6677421,0.7874647,-0.5681666,0.067668386,-0.028586566,0.0,0.3584079,-0.18358661,0.071576744,-0.057894383,0.109349184,-0.007055687,0.07540404,-0.4164933,-0.42412865,-0.04191384,-2.879055,0.06717596,131.26224,0.3002827,0.30447292,0.44684145,0.2234891,0.105761714,inf,inf,inf,inf,1,1,1,1,2,0,2,1,3,1,1,1
32919764,16344161,-33.9385866,18.8741493,-0.6642241,0.78542507,-0.57065344,0.067668386,-0.028586566,0.0,0.3748985,-0.18182878,0.08601439,-0.045414463,0.109349184,-0.007055687,0.07540404,1.1685543,-0.89097744,0.6513715,-2.8776922,0.06717596,131.26224,0.3027695,0.3055075,0.44749153,0.22555637,0.10596653,inf,inf,inf,inf,1,1,1,1,2,0,2,1,3,1,1,1
32929767,16344161,-33.9385866,18.8741493,-0.66054803,0.7833344,-0.5729199,0.067668386,-0.028586566,0.0,0.39198813,-0.18484297,0.09954481,-0.033701275,0.109349184,-0.007055687,0.07540404,1.853661,0.72086394,2.0214314,-2.8762906,0.06717596,131.26224,0.30503598,0.30655837,0.44814354,0.22765334,0.10617307,inf,inf,inf,inf,1,1,1,1,2,0,2,1,3,1,1,1
32939771,16344161,-33.9385866,18.8741493,-0.65684354,0.7812251,-0.5750185,0.067668386,-0.028586566,0.0,0.3788961,-0.19072092,0.093620986,-0.041309267,0.109349184,-0.007055687,0.07540404,-1.2179893,-0.25781873,-0.60031396,-2.874637,0.06717596,131.26224,0.3071346,0.3076261,0.44879767,0.22973464,0.10637875,inf,inf,inf,inf,1,1,1,1,2,0,2,1,3,1,1,1
32949773,16344161,-33.9385866,18.8741493,-0.6532258,0.7791482,-0.5770156,0.067668386,-0.028586566,0.0,0.37053636,-0.18779214,0.092909165,-0.043574966,0.109349184,-0.007055687,0.07540404,-1.3577532,-0.96945643,-1.0612341,-2.8731217,0.06717596,131.26224,0.30913165,0.3087107,0.4494538,0.23181745,0.1065839,inf,inf,inf,inf,1,1,1,1,2,0,2,1,3,1,1,1
32959780,16344161,-33.9385866,18.8741493,-0.6496286,0.77706033,-0.5789112,0.067668386,-0.028586566,0.0,0.38023818,-0.18563305,0.10342267,-0.034492623,0.109349184,-0.007055687,0.07540404,1.7836504,0.6463994,2.1239526,-2.8719325,0.06717596,131.26224,0.31102726,0.3098124,0.45011207,0.23390688,0.10678961,inf,inf,inf,inf,1,1,1,1,2,0,2,1,3,1,1,1
32969792,16344161,-33.9385866,18.8741493,-0.6459582,0.7749221,-0.58066475,0.067668386,-0.028586566,0.0,0.38274494,-0.19862318,0.098051585,-0.041176982,0.109349184,-0.007055687,0.07540404,0.86121225,-0.78643614,-0.057375994,-2.8706784,0.06717596,131.26224,0.31278083,0.31093147,0.45077237,0.23602802,0.10699902,inf,inf,inf,inf,1,1,1,1,2,0,2,1,3,1,1,1
32979784,16344161,-33.9385866,18.8741493,-0.6422631,0.7727156,-0.5833926,0.067668386,-0.028586566,0.0,0.37802446,-0.2049798,0.098939955,-0.04258183,0.109349184,-0.007055687,0.07540404,-1.4215573,-0.88274616,-0.83610517,-2.8691604,0.06717596,131.26224,0.3155087,0.31206858,0.4477258,0.23813967,0.10687029,inf,inf,inf,inf,1,1,1,1,2,0,2,1,3,1,1,1
32989790,16344161,-33.9385866,18.8741493,-0.6385245,0.7701048,-0.58532804,0.067668386,-0.028586566,0.0,0.38580957,-0.19186854,0.10382271,-0.03918138,0.109349184,-0.007055687,0.07540404,-0.086318955,0.070802025,-0.58066756,-2.867094,0.06717596,131.26224,0.31744412,0.2924355,0.44379318,0.20752223,0.103965364,inf,inf,inf,inf,1,1,1,1,2,0,2,1,3,1,1,1
32999826,16344161,-33.9385866,18.8741493,-0.63477206,0.76744664,-0.58724225,0.067668386,-0.028586566,0.0,0.38168222,-0.21191035,0.091850325,-0.052511286,0.109349184,-0.007055687,0.07540404,-0.28456703,-2.20271,-0.078546576,-2.8650317,0.06717596,131.26224,0.31935832,0.29331616,0.44442523,0.20939682,0.10416808,inf,inf,inf,inf,1,1,1,1,2,0,2,1,3,1,1,1
33009803,16344161,-33.9385866,18.8741493,-0.6310774,0.7646524,-0.58910424,0.067668386,-0.028586566,0.0,0.38469613,-0.2105865,0.0959593,-0.04964218,0.109349184,-0.007055687,0.07540404,1.9091859,2.8702846,1.7450169,-2.8630276,0.06717596,131.26224,0.3212203,0.29421118,0.44505933,0.2112602,0.104369536,inf,inf,inf,inf,1,1,1,1,2,0,2,1,3,1,1,1
33019798,16344161,-33.9385866,18.8741493,-0.6272843,0.7619894,-0.59080875,0.067668386,-0.028586566,0.0,0.38814166,-0.2047993,0.09124637,-0.055480782,0.109349184,-0.007055687,0.07540404,-0.06831663,0.11381941,-1.4267119,-2.8608367,0.06717596,131.26224,0.32292482,0.29512057,0.4456954,0.21313587,0.10457212,inf,inf,inf,inf,1,1,1,1,2,0,2,1,3,1,1,1
33029801,16344161,-33.9385866,18.8741493,-0.62354296,0.7592449,-0.59252363,0.067668386,-0.028586566,0.0,0.38018098,-0.22032315,0.08157042,-0.06617396,0.109349184,-0.007055687,0.07540404,0.35438374,-0.11486708,-0.5599362,-2.8592398,0.06717596,131.26224,0.3246397,0.29604474,0.4463335,0.21502607,0.10477634,inf,inf,inf,inf,1,1,1,1,2,0,2,1,3,1,1,1
33039804,16344161,-33.9385866,18.8741493,-0.6197074,0.7565131,-0.5941397,0.067668386,-0.028586566,0.0,0.39709485,-0.22048289,0.087016515,-0.06164102,0.109349184,-0.007055687,0.07540404,1.1600342,-1.5463996,-0.13151605,-2.858035,0.06717596,131.26224,0.32625577,0.29698402,0.44697362,0.21690345,0.10497868,inf,inf,inf,inf,1,1,1,1,2,0,2,1,3,1,1,1
33049808,16344161,-33.9385866,18.8741493,-0.615764,0.7537593,-0.595628,0.067668386,-0.028586566,0.0,0.40134153,-0.21723565,0.09050844,-0.058960427,0.109349184,-0.007055687,0.07540404,0.16529,0.96935576,0.04524863,-2.8562856,0.06717596,131.26224,0.3277441,0.29793847,0.44761568,0.21879089,0.105181724,inf,inf,inf,inf,1,1,1,1,2,0,2,1,3,1,1,1
33059814,16344161,-33.9385866,18.8741493,-0.61174583,0.7510674,-0.5970466,0.067668386,-0.028586566,0.0,0.40345556,-0.23054165,0.08047765,-0.06970681,0.109349184,-0.007055687,0.07540404,-1.5240084,-4.6052375,-1.9947271,-2.8547447,0.06717596,131.26224,0.3291627,0.29890838,0.4482598,0.22067964,0.105385,inf,inf,inf,inf,1,1,1,1,2,0,2,1,3,1,1,1
33069822,16344161,-33.9385866,18.8741493,-0.60768723,0.74828887,-0.5994111,0.067668386,-0.028586566,0.0,0.41464806,-0.22122796,0.084300905,-0.0674945,0.109349184,-0.007055687,0.07540404,0.75662124,0.92603165,0.28035143,-2.8536546,0.06717596,131.26224,0.33152714,0.299894,0.44525853,0.22257234,0.10526798,inf,inf,inf,inf,1,1,1,1,2,0,2,1,3,1,1,1
33079819,16344161,-33.9385866,18.8741493,-0.60361636,0.7455355,-0.60172766,0.067668386,-0.028586566,0.0,0.4025295,-0.23333816,0.06584825,-0.08742649,0.109349184,-0.007055687,0.07540404,-2.142995,-2.0983036,-2.226148,-2.8525622,0.06717596,131.26224,0.33384374,0.30089563,0.44590142,0.22448231,0.10547504,inf,inf,inf,inf,1,1,1,1,2,0,2,1,3,1,1,1
33089822,16344161,-33.9385866,18.8741493,-0.599496,0.74272054,-0.6040108,0.067668386,-0.028586566,0.0,0.42080137,-0.245511,0.07015629,-0.08446968,0.109349184,-0.007055687,0.07540404,0.4997658,-4.033378,0.35114002,-2.851774,0.06717596,131.26224,0.3361269,0.30191365,0.44654632,0.22637568,0.10567759,inf,inf,inf,inf,1,1,1,1,2,0,2,1,3,1,1,1
33099825,16344161,-33.9385866,18.8741493,-0.59528005,0.73986673,-0.6061785,0.067668386,-0.028586566,0.0,0.42836678,-0.22778687,0.06590326,-0.08995255,0.109349184,-0.007055687,0.07540404,1.0196131,2.1874604,-0.8192438,-2.8510976,0.06717596,131.26224,0.3382946,0.302948,0.4471933,0.2282748,0.105880566,inf,inf,inf,inf,1,1,1,1,2,0,2,1,3,1,1,1
33109828,16344161,-33.9385866,18.8741493,-0.5909315,0.737007,-0.60827166,0.067668386,-0.028586566,0.0,0.43828642,-0.2515101,0.064386316,-0.0925808,0.109349184,-0.007055687,0.07540404,-0.28085324,-2.3909314,-0.4876757,-2.8510582,0.06717596,131.26224,0.34038773,0.30399892,0.44784227,0.2301975,0.106088564,inf,inf,inf,inf,1,1,1,1,2,0,2,1,3,1,1,1
33119832,16344161,-33.9385866,18.8741493,-0.5865227,0.73413706,-0.6103267,0.067668386,-0.028586566,0.0,0.43789336,-0.24630058,0.05196556,-0.106001064,0.109349184,-0.007055687,0.07540404,-1.5924994,-2.3677268,-1.9494227,-2.850896,0.06717596,131.26224,0.34244278,0.30506703,0.44849333,0.23211977,0.10629589,inf,inf,inf,inf,1,1,1,1,2,0,2,1,3,1,1,1
33129836,16344161,-33.9385866,18.8741493,-0.58206725,0.7312113,-0.6124031,0.067668386,-0.028586566,0.0,0.45259836,-0.2522978,0.044312045,-0.11454676,0.109349184,-0.007055687,0.07540404,1.164823,-0.9280751,-0.754183,-2.8508239,0.06717596,131.26224,0.34451917,0.30615252,0.44914645,0.2340346,0.10650064,inf,inf,inf,inf,1,1,1,1,2,0,2,1,3,1,1,1
33139839,16344161,-33.9385866,18.8741493,-0.5774635,0.7282086,-0.61445296,0.067668386,-0.028586566,0.0,0.469655,-0.2560757,0.038385876,-0.12125978,0.109349184,-0.007055687,0.07540404,2.083256,0.9077103,-0.5461589,-2.851039,0.06717596,131.26224,0.34656903,0.3072554,0.4498016,0.23597035,0.10670775,inf,inf,inf,inf,1,1,1,1,2,0,2,1,3,1,1,1
33149880,16344161,-33.9385866,18.8741493,-0.5727287,0.7252046,-0.61652225,0.067668386,-0.028586566,0.0,0.46414125,-0.25461236,0.01920742,-0.14112653,0.109349184,-0.007055687,0.07540404,-2.2058282,1.0440373,-2.5201974,-2.8514109,0.06717596,131.26224,0.34863833,0.3083762,0.45045882,0.23790161,0.10691524,inf,inf,inf,inf,1,1,1,1,2,0,2,1,3,1,1,1
33159845,16344161,-33.9385866,18.8741493,-0.5679891,0.7222124,-0.6197015,0.067668386,-0.028586566,0.0,0.47849232,-0.27784443,0.005886314,-0.15606585,0.109349184,-0.007055687,0.07540404,0.0971295,-5.105762,-1.242021,-2.8522968,0.06717596,131.26224,0.35181758,0.30951503,0.44741696,0.23983613,0.10678695,inf,inf,inf,inf,1,1,1,1,2,0,2,1,3,1,1,1
33169849,16344161,-33.9385866,18.8741493,-0.5631135,0.7191224,-0.62290233,0.067668386,-0.028586566,0.0,0.49242157,-0.27108487,-0.008174601,-0.17160904,0.109349184,-0.007055687,0.07540404,1.2046535,-1.4894835,-1.1234865,-2.853115,0.06717596,131.26224,0.3550184,0.3106721,0.4480729,0.24178983,0.106995754,inf,inf,inf,inf,1,1,1,1,2,0,2,1,3,1,1,1
33179853,16344161,-33.9385866,18.8741493,-0.55820286,0.71607083,-0.6261307,0.067668386,-0.028586566,0.0,0.48635983,-0.25712284,-0.02890825,-0.19369148,0.109349184,-0.007055687,0.07540404,-0.3192033,2.3590295,-2.8956912,-2.8533945,0.06717596,131.26224,0.35824677,0.31184795,0.4487309,0.2437301,0.10720165,inf,inf,inf,inf,1,1,1,1,2,0,2,1,3,1,1,1
33189856,16344161,-33.9385866,18.8741493,-0.55425525,0.7123108,-0.6292893,0.067668386,-0.028586566,0.0,0.4964791,-0.27943802,-0.03950366,-0.2053968,0.109349184,-0.007055687,0.07540404,-1.1315295,-0.1034109,-1.8099841,-2.8542595,0.06717596,131.26224,0.3614054,0.29168564,0.44477424,0.21100883,0.10421035,inf,inf,inf,inf,1,1,1,1,2,0,2,1,3,1,1,1
33199860,16344161,-33.9385866,18.8741493,-0.55023307,0.7085707,-0.63248837,0.067668386,-0.028586566,0.0,0.49723673,-0.28099203,-0.050822556,-0.2177081,0.109349184,-0.007055687,0.07540404,-1.5946085,-2.4168544,-0.47267938,-2.8551934,0.06717596,131.26224,0.36460444,0.2925879,0.44540718,0.21272454,0.10441148,inf,inf,inf,inf,1,1,1,1,2,0,2,1,3,1,1,1
33209864,16344161,-33.9385866,18.8741493,-0.5461808,0.70487183,-0.6357313,0.067668386,-0.028586566,0.0,0.512138,-0.28114864,-0.0652776,-0.23304527,0.109349184,-0.007055687,0.07540404,2.8340044,-3.2533917,-0.3044129,-2.85592,0.06717596,131.26224,0.36784735,0.2935051,0.44604215,0.21443318,0.104606755,inf,inf,inf,inf,1,1,1,1,2,0,2,1,3,1,1,1
33219866,16344161,-33.9385866,18.8741493,-0.5420217,0.7011115,-0.6389819,0.067668386,-0.028586566,0.0,0.5051891,-0.27211073,-0.08434416,-0.2528882,0.109349184,-0.007055687,0.07540404,-1.017953,2.987356,-3.3901732,-2.8569946,0.06717596,131.26224,0.37109795,0.29443726,0.44667915,0.21614645,0.10480362,inf,inf,inf,inf,1,1,1,1,2,0,2,1,3,1,1,1
33229870,16344161,-33.9385866,18.8741493,-0.53783643,0.6974039,-0.6423448,0.067668386,-0.028586566,0.0,0.50844026,-0.27550757,-0.10161444,-0.27083048,0.109349184,-0.007055687,0.07540404,-0.7437208,1.631595,-2.2799568,-2.8581014,0.06717596,131.26224,0.37446085,0.29538462,0.4473181,0.21787483,0.10500152,inf,inf,inf,inf,1,1,1,1,2,0,2,1,3,1,1,1
33239874,16344161,-33.9385866,18.8741493,-0.53354615,0.69369775,-0.6471142,0.067668386,-0.028586566,0.0,0.51504636,-0.28806943,-0.10979435,-0.28093272,0.109349184,-0.007055687,0.07540404,-1.6867702,-1.5770497,-0.020101307,-2.8592794,0.06717596,131.26224,0.3792303,0.2963476,0.44433457,0.2195963,0.10487923,inf,inf,inf,inf,1,1,1,1,2,0,2,1,3,1,1,1
33249877,16344161,-33.9385866,18.8741493,-0.52923805,0.69002116,-0.6519028,0.067668386,-0.028586566,0.0,0.5252356,-0.28260586,-0.12737566,-0.3002813,0.109349184,-0.007055687,0.07540404,2.2314591,-1.441203,-0.018856008,-2.8603244,0.06717596,131.26224,0.38401887,0.29732624,0.44497234,0.2213375,0.105079,inf,inf,inf,inf,1,1,1,1,2,0,2,1,3,1,1,1
33259880,16344161,-33.9385866,18.8741493,-0.52487344,0.68636924,-0.65670466,0.067668386,-0.028586566,0.0,0.52383727,-0.26804814,-0.14543416,-0.31996042,0.109349184,-0.007055687,0.07540404,1.4080831,3.2783365,-1.610646,-2.8612046,0.06717596,131.26224,0.38882074,0.29832113,0.4456122,0.22306515,0.105271615,inf,inf,inf,inf,1,1,1,1,2,0,2,1,3,1,1,1
33269885,16344161,-33.9385866,18.8741493,-0.5205035,0.68275493,-0.66157514,0.067668386,-0.028586566,0.0,0.5180396,-0.27591234,-0.16713095,-0.3431341,0.109349184,-0.007055687,0.07540404,0.26696756,1.7668368,-2.2200685,-2.8629901,0.06717596,131.26224,0.3936912,0.29933205,0.44625407,0.22480415,0.10546501,inf,inf,inf,inf,1,1,1,1,2,0,2,1,3,1,1,1
33279887,16344161,-33.9385866,18.8741493,-0.5160745,0.67918783,-0.6664803,0.067668386,-0.028586566,0.0,0.5146253,-0.2731522,-0.17874528,-0.3560902,0.109349184,-0.007055687,0.07540404,-3.0054495,0.80502033,-1.782221,-2.864656,0.06717596,131.26224,0.39859638,0.3003595,0.446898,0.22654273,0.105658226,inf,inf,inf,inf,1,1,1,1,2,0,2,1,3,1,1,1
33289891,16344161,-33.9385866,18.8741493,-0.5116955,0.67569643,-0.67145324,0.067668386,-0.028586566,0.0,0.5208921,-0.26777437,-0.1940074,-0.37256134,0.109349184,-0.007055687,0.07540404,1.3394736,0.36069292,-0.20104973,-2.8659985,0.06717596,131.26224,0.4035693,0.30140346,0.44754395,0.22829388,0.10585213,inf,inf,inf,inf,1,1,1,1,2,0,2,1,3,1,1,1
33299894,16344161,-33.9385866,18.8741493,-0.50726944,0.67216307,-0.6764692,0.067668386,-0.028586566,0.0,0.5228408,-0.26959562,-0.20747764,-0.38711613,0.109349184,-0.007055687,0.07540404,1.3714929,2.817538,0.337948,-2.8675897,0.06717596,131.26224,0.40858528,0.3024645,0.448192,0.2300462,0.1060423,inf,inf,inf,inf,1,1,1,1,2,0,2,1,3,1,1,1
33309898,16344161,-33.9385866,18.8741493,-0.5028766,0.66876274,-0.6815391,0.067668386,-0.028586566,0.0,0.51492184,-0.27158314,-0.23011576,-0.4107194,0.109349184,-0.007055687,0.07540404,1.2585342,-2.475309,-1.4324458,-2.8690515,0.06717596,131.26224,0.4136552,0.30354267,0.44884208,0.23180099,0.10623083,inf,inf,inf,inf,1,1,1,1,2,0,2,1,3,1,1,1
33319901,16344161,-33.9385866,18.8741493,-0.49845046,0.665383,-0.6866424,0.067668386,-0.028586566,0.0,0.516484,-0.26049083,-0.2428155,-0.42426607,0.109349184,-0.007055687,0.07540404,0.2399717,0.6252219,-1.9872496,-2.8707228,0.06717596,131.26224,0.41875848,0.30463818,0.44949415,0.23356639,0.10642302,inf,inf,inf,inf,1,1,1,1,2,0,2,1,3,1,1,1
33329904,16344161,-33.9385866,18.8741493,-0.49405843,0.6620302,-0.69336355,0.067668386,-0.028586566,0.0,0.50706214,-0.25142714,-0.25873077,-0.4425007,0.109349184,-0.007055687,0.07540404,-0.5063061,3.9482863,-1.9744949,-2.8723574,0.06717596,131.26224,0.42547962,0.30575144,0.44647083,0.2353326,0.10628262,inf,inf,inf,inf,1,1,1,1,2,0,2,1,3,1,1,1
33339931,16344161,-33.9385866,18.8741493,-0.4895957,0.6587435,-0.70006573,0.067668386,-0.028586566,0.0,0.5070564,-0.26084808,-0.268803,-0.454714,0.109349184,-0.007055687,0.07540404,-3.1473858,-0.24522036,-1.4996676,-2.8736734,0.06717596,131.26224,0.4321818,0.30688253,0.44712168,0.23710278,0.10646883,inf,inf,inf,inf,1,1,1,1,2,0,2,1,3,1,1,1
33349911,16344161,-33.9385866,18.8741493,-0.48518568,0.65551966,-0.70680696,0.067668386,-0.028586566,0.0,0.51862264,-0.25325674,-0.28424326,-0.47212723,0.109349184,-0.007055687,0.07540404,2.0738902,-0.25590295,0.6471748,-2.8754647,0.06717596,131.26224,0.43892303,0.30803174,0.44777465,0.23887748,0.10665783,inf,inf,inf,inf,1,1,1,1,2,0,2,1,3,1,1,1
33359915,16344161,-33.9385866,18.8741493,-0.48073652,0.6523151,-0.71353275,0.067668386,-0.028586566,0.0,0.5150094,-0.2429788,-0.296924,-0.48661578,0.109349184,-0.007055687,0.07540404,1.5795363,3.2935345,0.061939977,-2.8770475,0.06717596,131.26224,0.44564882,0.30919933,0.44842964,0.24064955,0.10684324,inf,inf,inf,inf,1,1,1,1,2,0,2,1,3,1,1,1
33369918,16344161,-33.9385866,18.8741493,-0.47631052,0.6491933,-0.72025514,0.067668386,-0.028586566,0.0,0.5114117,-0.2563056,-0.31492952,-0.506274,0.109349184,-0.007055687,0.07540404,1.5214801,-2.4584188,-1.3542701,-2.878673,0.06717596,131.26224,0.4523712,0.31038535,0.4490868,0.24242331,0.10702875,inf,inf,inf,inf,1,1,1,1,2,0,2,1,3,1,1,1
33379923,16344161,-33.9385866,18.8741493,-0.4718498,0.6460719,-0.7269389,0.067668386,-0.028586566,0.0,0.5083059,-0.23597832,-0.32258973,-0.51543504,0.109349184,-0.007055687,0.07540404,-0.48557505,2.7407098,-1.7026372,-2.8805223,0.06717596,131.26224,0.45905498,0.31159002,0.44974592,0.2442052,0.10721085,inf,inf,inf,inf,1,1,1,1,2,0,2,1,3,1,1,1
33389927,16344161,-33.9385866,18.8741493,-0.46771544,0.64343584,-0.73296,0.067668386,-0.028586566,0.0,0.5050992,-0.23087403,-0.3381295,-0.5316233,0.109349184,-0.007055687,0.07540404,0.92031145,3.9310522,-1.2518072,-2.8821933,0.06717596,131.26224,0.46507606,0.290981,0.4457635,0.21112287,0.10420125,inf,inf,inf,inf,1,1,1,1,2,0,2,1,3,1,1,1
33399930,16344161,-33.9385866,18.8741493,-0.4635393,0.64083385,-0.73899597,0.067668386,-0.028586566,0.0,0.49629715,-0.24124885,-0.3473127,-0.5413488,0.109349184,-0.007055687,0.07540404,-2.8649702,0.4891595,-1.0599986,-2.8841646,0.06717596,131.26224,0.47111204,0.29190555,0.44639754,0.21268544,0.10438094,inf,inf,inf,inf,1,1,1,1,2,0,2,1,3,1,1,1
33409939,16344161,-33.9385866,18.8741493,-0.45941,0.63829947,-0.7451,0.067668386,-0.028586566,0.0,0.50947046,-0.22708732,-0.3607703,-0.55524373,0.109349184,-0.007055687,0.07540404,3.0247679,1.372021,0.5534299,-2.8861318,0.06717596,131.26224,0.4772161,0.29284516,0.44703352,0.21424533,0.10455923,inf,inf,inf,inf,1,1,1,1,2,0,2,1,3,1,1,1
33419935,16344161,-33.9385866,18.8741493,-0.45528165,0.6358182,-0.75291294,0.067668386,-0.028586566,0.0,0.4987404,-0.22274128,-0.3797829,-0.5762665,0.109349184,-0.007055687,0.07540404,1.8145508,2.4060757,-0.33526146,-2.8878222,0.06717596,131.26224,0.485029,0.2937999,0.44405395,0.2158144,0.104422085,inf,inf,inf,inf,1,1,1,1,2,0,2,1,3,1,1,1
33429940,16344161,-33.9385866,18.8741493,-0.4511519,0.6333879,-0.76069933,0.067668386,-0.028586566,0.0,0.49848142,-0.23401381,-0.3912428,-0.5895667,0.109349184,-0.007055687,0.07540404,1.7351034,-2.1561184,-0.93104124,-2.889991,0.06717596,131.26224,0.4928154,0.29477012,0.44468877,0.217384,0.10460132,inf,inf,inf,inf,1,1,1,1,2,0,2,1,3,1,1,1
33439942,16344161,-33.9385866,18.8741493,-0.4470532,0.6310446,-0.76846343,0.067668386,-0.028586566,0.0,0.4901805,-0.20331754,-0.40641257,-0.6064164,0.109349184,-0.007055687,0.07540404,1.2734362,2.9848673,-1.8633627,-2.8918312,0.06717596,131.26224,0.5005795,0.29575598,0.44532564,0.21895705,0.104782395,inf,inf,inf,inf,1,1,1,1,2,0,2,1,3,1,1,1
33449946,16344161,-33.9385866,18.8741493,-0.44295293,0.6287355,-0.7762507,0.067668386,-0.028586566,0.0,0.48674536,-0.21081497,-0.42337507,-0.6249017,0.109349184,-0.007055687,0.07540404,0.12859921,2.8573668,-2.05581,-2.8939707,0.06717596,131.26224,0.5083668,0.29675776,0.44596452,0.22052701,0.10496205,inf,inf,inf,inf,1,1,1,1,2,0,2,1,3,1,1,1
33459950,16344161,-33.9385866,18.8741493,-0.43884385,0.62649876,-0.7840392,0.067668386,-0.028586566,0.0,0.47681642,-0.20950459,-0.4355857,-0.6384875,0.109349184,-0.007055687,0.07540404,-2.7133763,-0.0057464177,-2.0931659,-2.8961868,0.06717596,131.26224,0.51615524,0.29777548,0.4466054,0.22210345,0.105139956,inf,inf,inf,inf,1,1,1,1,2,0,2,1,3,1,1,1
33469956,16344161,-33.9385866,18.8741493,-0.43473783,0.62432355,-0.791804,0.067668386,-0.028586566,0.0,0.48657936,-0.19817144,-0.43740207,-0.64153457,0.109349184,-0.007055687,0.07540404,0.2400862,1.5724753,0.37845075,-2.8978252,0.06717596,131.26224,0.52392006,0.29880938,0.44724828,0.22367993,0.10531891,inf,inf,inf,inf,1,1,1,1,2,0,2,1,3,1,1,1
33479997,16344161,-33.9385866,18.8741493,-0.43066084,0.6221561,-0.79959667,0.067668386,-0.028586566,0.0,0.47603858,-0.20867136,-0.46118698,-0.66641426,0.109349184,-0.007055687,0.07540404,0.74059546,-0.74242723,-1.5511984,-2.8996358,0.06717596,131.26224,0.5317128,0.2998596,0.44789323,0.22526242,0.105500475,inf,inf,inf,inf,1,1,1,1,2,0,2,1,3,1,1,1
33489978,16344161,-33.9385866,18.8741493,-0.4265889,0.62007684,-0.8073846,0.067668386,-0.028586566,0.0,0.4723044,-0.20423016,-0.47188663,-0.6780783,0.109349184,-0.007055687,0.07540404,-1.6430391,-3.15134,-1.5864908,-2.9012957,0.06717596,131.26224,0.5395007,0.30092648,0.4485402,0.2268435,0.105679154,inf,inf,inf,inf,1,1,1,1,2,0,2,1,3,1,1,1
33499962,16344161,-33.9385866,18.8741493,-0.42261124,0.6180471,-0.8167884,0.067668386,-0.028586566,0.0,0.4739047,-0.19454134,-0.48820177,-0.69681287,0.109349184,-0.007055687,0.07540404,3.0600321,-1.3071268,-0.9672403,-2.9028025,0.06717596,131.26224,0.5489044,0.30201003,0.4455349,0.22842696,0.105536185,inf,inf,inf,inf,1,1,1,1,2,0,2,1,3,1,1,1
33509967,16344161,-33.9385866,18.8741493,-0.41861457,0.6160144,-0.8261768,0.067668386,-0.028586566,0.0,0.4521405,-0.19760835,-0.5099828,-0.72082347,0.109349184,-0.007055687,0.07540404,-3.0977945,-0.89306146,-3.623817,-2.9046004,0.06717596,131.26224,0.55829287,0.30311048,0.44618067,0.2300092,0.10571556,inf,inf,inf,inf,1,1,1,1,2,0,2,1,3,1,1,1
33519975,16344161,-33.9385866,18.8741493,-0.41468433,0.6140877,-0.83554965,0.067668386,-0.028586566,0.0,0.45375645,-0.18802336,-0.51680106,-0.729686,0.109349184,-0.007055687,0.07540404,-1.3121191,-2.248552,-1.9994434,-2.9059284,0.06717596,131.26224,0.5676657,0.3042279,0.4468284,0.23159929,0.10589216,inf,inf,inf,inf,1,1,1,1,2,0,2,1,3,1,1,1
33530024,16344161,-33.9385866,18.8741493,-0.41076925,0.61214554,-0.84489053,0.067668386,-0.028586566,0.0,0.44170475,-0.17582437,-0.5282557,-0.74301,0.109349184,-0.007055687,0.07540404,-2.6326754,3.118164,-2.0836298,-2.9071538,0.06717596,131.26224,0.5770066,0.30536255,0.44747823,0.23318842,0.10607133,inf,inf,inf,inf,1,1,1,1,2,0,2,1,3,1,1,1
33539977,16344161,-33.9385866,18.8741493,-0.4069216,0.61029655,-0.85416627,0.067668386,-0.028586566,0.0,0.43676552,-0.1840625,-0.543403,-0.7598559,0.109349184,-0.007055687,0.07540404,-3.6149886,-0.8123992,-2.3752782,-2.9090474,0.06717596,131.26224,0.5862824,0.30651453,0.44813004,0.23478001,0.10625131,inf,inf,inf,inf,1,1,1,1,2,0,2,1,3,1,1,1
33549980,16344161,-33.9385866,18.8741493,-0.40308744,0.6085314,-0.8634856,0.067668386,-0.028586566,0.0,0.43859833,-0.1673707,-0.5531846,-0.7711748,0.109349184,-0.007055687,0.07540404,-1.4612318,0.047371376,-0.4956105,-2.9105375,0.06717596,131.26224,0.5956017,0.30768412,0.44878396,0.23637177,0.106429346,inf,inf,inf,inf,1,1,1,1,2,0,2,1,3,1,1,1
33559985,16344161,-33.9385866,18.8741493,-0.39927447,0.60674626,-0.87280715,0.067668386,-0.028586566,0.0,0.44356304,-0.1730529,-0.5637286,-0.7830988,0.109349184,-0.007055687,0.07540404,1.8049078,1.3053079,0.9945525,-2.9123147,0.06717596,131.26224,0.60492325,0.30887136,0.44943985,0.23796813,0.10660831,inf,inf,inf,inf,1,1,1,1,2,0,2,1,3,1,1,1
33569987,16344161,-33.9385866,18.8741493,-0.39549243,0.6050561,-0.8821045,0.067668386,-0.028586566,0.0,0.4303142,-0.16872443,-0.58097094,-0.80157286,0.109349184,-0.007055687,0.07540404,0.059372086,-1.3464265,-0.85191715,-2.9137905,0.06717596,131.26224,0.6142206,0.31007642,0.4500979,0.23956038,0.1067885,inf,inf,inf,inf,1,1,1,1,2,0,2,1,3,1,1,1
33579991,16344161,-33.9385866,18.8741493,-0.39174613,0.60341954,-0.89138716,0.067668386,-0.028586566,0.0,0.43440095,-0.159187,-0.5882904,-0.8099814,0.109349184,-0.007055687,0.07540404,2.1054788,0.09755588,-0.23267321,-2.9152565,0.06717596,131.26224,0.6235032,0.31129944,0.45075792,0.24116209,0.10696356,inf,inf,inf,inf,1,1,1,1,2,0,2,1,3,1,1,1
33589996,16344161,-33.9385866,18.8741493,-0.3884519,0.601305,-0.90172356,0.067668386,-0.028586566,0.0,0.41886297,-0.15492709,-0.61070955,-0.83438915,0.109349184,-0.007055687,0.07540404,0.93557507,3.6369407,-2.1422632,-2.9171126,0.06717596,131.26224,0.6338396,0.2903404,0.44315666,0.20893781,0.103709936,inf,inf,inf,inf,1,1,1,1,2,0,2,1,3,1,1,1
33599997,16344161,-33.9385866,18.8741493,-0.38517722,0.59928685,-0.9120381,0.067668386,-0.028586566,0.0,0.40397486,-0.1537589,-0.6224763,-0.84796745,0.109349184,-0.007055687,0.07540404,-3.2386582,1.3899211,-2.4433997,-2.9186566,0.06717596,131.26224,0.6441542,0.29128462,0.4437865,0.2103421,0.10388623,inf,inf,inf,inf,1,1,1,1,2,0,2,1,3,1,1,1
33610001,16344161,-33.9385866,18.8741493,-0.38197765,0.59730667,-0.9223712,0.067668386,-0.028586566,0.0,0.40932307,-0.15184738,-0.6338871,-0.8610175,0.109349184,-0.007055687,0.07540404,1.0579114,1.3490777,-0.2716433,-2.9201534,0.06717596,131.26224,0.65448725,0.29224345,0.44441828,0.21175548,0.10406298,inf,inf,inf,inf,1,1,1,1,2,0,2,1,3,1,1,1
33620004,16344161,-33.9385866,18.8741493,-0.37880552,0.59529877,-0.93265927,0.067668386,-0.028586566,0.0,0.38984492,-0.14733522,-0.6435923,-0.87219876,0.109349184,-0.007055687,0.07540404,-2.1487432,4.9183292,-0.3021719,-2.9217055,0.06717596,131.26224,0.6647754,0.29321712,0.44505212,0.21316586,0.104239605,inf,inf,inf,inf,1,1,1,1,2,0,2,1,3,1,1,1
33630008,16344161,-33.9385866,18.8741493,-0.3757159,0.5934434,-0.94290274,0.067668386,-0.028586566,0.0,0.3893696,-0.15744683,-0.65275997,-0.8826835,0.109349184,-0.007055687,0.07540404,-0.005882328,-3.0448136,-0.15939455,-2.9229271,0.06717596,131.26224,0.6750188,0.29420584,0.4456879,0.2145777,0.10441691,inf,inf,inf,inf,1,1,1,1,2,0,2,1,3,1,1,1
33640012,16344161,-33.9385866,18.8741493,-0.3726658,0.591563,-0.9531303,0.067668386,-0.028586566,0.0,0.38746127,-0.14585239,-0.6663435,-0.89743394,0.109349184,-0.007055687,0.07540404,1.8679199,1.1280859,-0.3550311,-2.9242947,0.06717596,131.26224,0.68524635,0.29520965,0.44632572,0.2159893,0.104588546,inf,inf,inf,inf,1,1,1,1,2,0,2,1,3,1,1,1
33650017,16344161,-33.9385866,18.8741493,-0.3696583,0.58974534,-0.96336395,0.067668386,-0.028586566,0.0,0.37783206,-0.14660487,-0.681591,-0.9137015,0.109349184,-0.007055687,0.07540404,1.5186312,0.22156109,-0.72143,-2.925461,0.06717596,131.26224,0.69548,0.2962286,0.44696546,0.21740721,0.104766496,inf,inf,inf,inf,1,1,1,1,2,0,2,1,3,1,1,1
33660019,16344161,-33.9385866,18.8741493,-0.36668682,0.5880242,-0.97354686,0.067668386,-0.028586566,0.0,0.3637606,-0.14865047,-0.6925648,-0.92555755,0.109349184,-0.007055687,0.07540404,-1.4260799,-3.830489,-2.4671803,-2.9265575,0.06717596,131.26224,0.70566297,0.2972631,0.44760728,0.21882439,0.10494151,inf,inf,inf,inf,1,1,1,1,2,0,2,1,3,1,1,1
33670022,16344161,-33.9385866,18.8741493,-0.36374575,0.58627045,-0.9836956,0.067668386,-0.028586566,0.0,0.3614582,-0.13389654,-0.6989124,-0.9326552,0.109349184,-0.007055687,0.07540404,-1.308281,2.1884012,-1.9715905,-2.9281676,0.06717596,131.26224,0.7158117,0.29831308,0.44825107,0.2202462,0.10511531,inf,inf,inf,inf,1,1,1,1,2,0,2,1,3,1,1,1
33680025,16344161,-33.9385866,18.8741493,-0.36089033,0.5846051,-0.99573815,0.067668386,-0.028586566,0.0,0.34039518,-0.13535526,-0.71895087,-0.9552126,0.109349184,-0.007055687,0.07540404,-3.6437128,0.2273499,-3.2378263,-2.9291902,0.06717596,131.26224,0.72785425,0.29937887,0.44524965,0.22167039,0.104972854,inf,inf,inf,inf,1,1,1,1,2,0,2,1,3,1,1,1
33690029,16344161,-33.9385866,18.8741493,-0.35805535,0.58294636,-1.0077432,0.067668386,-0.028586566,0.0,0.33891654,-0.14292355,-0.72476363,-0.963339,0.109349184,-0.007055687,0.07540404,-4.602603,-2.0425622,-1.423219,-2.9303339,0.06717596,131.26224,0.73985934,0.3004606,0.44589218,0.22309211,0.10514584,inf,inf,inf,inf,1,1,1,1,2,0,2,1,3,1,1,1
33700032,16344161,-33.9385866,18.8741493,-0.3553351,0.58130586,-1.0197184,0.067668386,-0.028586566,0.0,0.33959562,-0.12774496,-0.7337189,-0.9744084,0.109349184,-0.007055687,0.07540404,0.7764957,1.6298699,1.0600221,-2.9317708,0.06717596,131.26224,0.7518345,0.30155826,0.44653672,0.22451927,0.105322026,inf,inf,inf,inf,1,1,1,1,2,0,2,1,3,1,1,1
33710035,16344161,-33.9385866,18.8741493,-0.352659,0.579723,-1.031593,0.067668386,-0.028586566,0.0,0.32307616,-0.13499148,-0.74610126,-0.98871607,0.109349184,-0.007055687,0.07540404,-1.6851943,-0.8373969,-0.9374039,-2.932741,0.06717596,131.26224,0.76370907,0.30267203,0.44718328,0.22594383,0.105497055,inf,inf,inf,inf,1,1,1,1,2,0,2,1,3,1,1,1
33720071,16344161,-33.9385866,18.8741493,-0.3500403,0.57815176,-1.0434668,0.067668386,-0.028586566,0.0,0.32851085,-0.13831283,-0.7569468,-1.0013027,0.109349184,-0.007055687,0.07540404,1.7257285,-2.7686317,0.077406615,-2.9341373,0.06717596,131.26224,0.7755829,0.30380207,0.44783184,0.22737321,0.105669096,inf,inf,inf,inf,1,1,1,1,2,0,2,1,3,1,1,1
33730043,16344161,-33.9385866,18.8741493,-0.34751904,0.5766212,-1.0552412,0.067668386,-0.028586566,0.0,0.31269968,-0.11080555,-0.77024984,-1.0161725,0.109349184,-0.007055687,0.07540404,1.4108887,4.3743134,-0.75372666,-2.9352658,0.06717596,131.26224,0.78735733,0.30494845,0.44848245,0.22879872,0.10584079,inf,inf,inf,inf,1,1,1,1,2,0,2,1,3,1,1,1
33740046,16344161,-33.9385866,18.8741493,-0.34503916,0.57513285,-1.0669597,0.067668386,-0.028586566,0.0,0.3038,-0.12811549,-0.77755743,-1.0248766,0.109349184,-0.007055687,0.07540404,0.010848127,0.43370992,-1.3253139,-2.9365025,0.06717596,131.26224,0.79907584,0.30611134,0.44913507,0.23023258,0.10601658,inf,inf,inf,inf,1,1,1,1,2,0,2,1,3,1,1,1
33750049,16344161,-33.9385866,18.8741493,-0.34261313,0.5736564,-1.078649,0.067668386,-0.028586566,0.0,0.29041654,-0.11927514,-0.7957412,-1.0442961,0.109349184,-0.007055687,0.07540404,-1.9758903,1.2418358,-2.899459,-2.938017,0.06717596,131.26224,0.81076515,0.30729094,0.4497897,0.23166378,0.106187224,inf,inf,inf,inf,1,1,1,1,2,0,2,1,3,1,1,1
33760054,16344161,-33.9385866,18.8741493,-0.34025994,0.5722502,-1.0920489,0.067668386,-0.028586566,0.0,0.28757903,-0.1045606,-0.8021616,-1.0535007,0.109349184,-0.007055687,0.07540404,-0.5165946,4.2173405,-0.063998215,-2.938891,0.06717596,131.26224,0.824165,0.30848724,0.44676164,0.23310302,0.10603135,inf,inf,inf,inf,1,1,1,1,2,0,2,1,3,1,1,1
33770056,16344161,-33.9385866,18.8741493,-0.33798844,0.570865,-1.1053421,0.067668386,-0.028586566,0.0,0.27372107,-0.12779722,-0.81499165,-1.0688895,0.109349184,-0.007055687,0.07540404,-1.1056386,-1.680783,-0.9559237,-2.940225,0.06717596,131.26224,0.83745825,0.30970058,0.44741496,0.23453955,0.106206745,inf,inf,inf,inf,1,1,1,1,2,0,2,1,3,1,1,1
33780061,16344161,-33.9385866,18.8741493,-0.3357603,0.56951123,-1.1185552,0.067668386,-0.028586566,0.0,0.2666149,-0.11644613,-0.8232666,-1.0795094,0.109349184,-0.007055687,0.07540404,-2.1929507,-1.4828424,-0.55877435,-2.941623,0.06717596,131.26224,0.8506713,0.31093094,0.44807032,0.23597383,0.1063771,inf,inf,inf,inf,1,1,1,1,2,0,2,1,3,1,1,1
33790063,16344161,-33.9385866,18.8741493,-0.33482483,0.56781834,-1.1315751,0.067668386,-0.028586566,0.0,0.26404124,-0.11263054,-0.8410226,-1.0992516,0.109349184,-0.007055687,0.07540404,2.8659022,-2.0157242,-0.9145992,-2.9423459,0.06717596,131.26224,0.8636912,0.28975314,0.44415033,0.20532566,0.10353198,inf,inf,inf,inf,1,1,1,1,2,0,2,1,3,1,1,1
33800066,16344161,-33.9385866,18.8741493,-0.33390743,0.56608,-1.1445533,0.067668386,-0.028586566,0.0,0.23706555,-0.122015916,-0.8594104,-1.1194353,0.109349184,-0.007055687,0.07540404,-3.0095901,-1.8609362,-3.1942804,-2.9435024,0.06717596,131.26224,0.8766694,0.290712,0.444781,0.20659247,0.10370251,inf,inf,inf,inf,1,1,1,1,2,0,2,1,3,1,1,1
33810074,16344161,-33.9385866,18.8741493,-0.333068,0.56443805,-1.1574839,0.067668386,-0.028586566,0.0,0.23304173,-0.10904653,-0.8606882,-1.1223235,0.109349184,-0.007055687,0.07540404,-1.9688274,-1.9668477,-0.90534836,-2.9443102,0.06717596,131.26224,0.88960004,0.29168487,0.44541365,0.20786722,0.10387266,inf,inf,inf,inf,1,1,1,1,2,0,2,1,3,1,1,1
33820074,16344161,-33.9385866,18.8741493,-0.33232355,0.5628225,-1.1703204,0.067668386,-0.028586566,0.0,0.21601059,-0.10017965,-0.875415,-1.1384853,0.109349184,-0.007055687,0.07540404,-2.0424461,1.7762811,-2.703158,-2.9448707,0.06717596,131.26224,0.9024365,0.29267192,0.44604832,0.20914255,0.10404476,inf,inf,inf,inf,1,1,1,1,2,0,2,1,3,1,1,1
33830077,16344161,-33.9385866,18.8741493,-0.33159903,0.5611778,-1.1831439,0.067668386,-0.028586566,0.0,0.20647606,-0.11164346,-0.8832214,-1.1475563,0.109349184,-0.007055687,0.07540404,-4.195536,0.9840405,-1.104659,-2.9460902,0.06717596,131.26224,0.91525996,0.29367334,0.44668487,0.21041922,0.10421732,inf,inf,inf,inf,1,1,1,1,2,0,2,1,3,1,1,1
33840080,16344161,-33.9385866,18.8741493,-0.330966,0.55966836,-1.1959232,0.067668386,-0.028586566,0.0,0.20380124,-0.09826093,-0.88839126,-1.1538293,0.109349184,-0.007055687,0.07540404,-0.8252453,-0.7930506,0.5375326,-2.9462693,0.06717596,131.26224,0.9280393,0.29468915,0.44732347,0.21169798,0.10438586,inf,inf,inf,inf,1,1,1,1,2,0,2,1,3,1,1,1
33850084,16344161,-33.9385866,18.8741493,-0.33037734,0.5581203,-1.2104785,0.067668386,-0.028586566,0.0,0.20373906,-0.10058804,-0.8981892,-1.1664218,0.109349184,-0.007055687,0.07540404,2.0552669,2.1041992,0.563664,-2.947011,0.06717596,131.26224,0.94259465,0.29571944,0.44433933,0.21298186,0.10424209,inf,inf,inf,inf,1,1,1,1,2,0,2,1,3,1,1,1
33860088,16344161,-33.9385866,18.8741493,-0.32985893,0.55661136,-1.224965,0.067668386,-0.028586566,0.0,0.18884067,-0.10197696,-0.9163239,-1.187121,0.109349184,-0.007055687,0.07540404,1.6298937,0.5251313,-0.71284443,-2.947978,0.06717596,131.26224,0.9570811,0.29676455,0.44497666,0.21425688,0.10441049,inf,inf,inf,inf,1,1,1,1,2,0,2,1,3,1,1,1
33870092,16344161,-33.9385866,18.8741493,-0.32940105,0.555216,-1.2393461,0.067668386,-0.028586566,0.0,0.17139025,-0.09687663,-0.926409,-1.1995498,0.109349184,-0.007055687,0.07540404,-1.2667325,-1.959146,-2.0227911,-2.9482398,0.06717596,131.26224,0.97146225,0.29782432,0.445616,0.21553947,0.10457766,inf,inf,inf,inf,1,1,1,1,2,0,2,1,3,1,1,1
33880094,16344161,-33.9385866,18.8741493,-0.32902792,0.5537427,-1.2536455,0.067668386,-0.028586566,0.0,0.16581509,-0.09622017,-0.9365088,-1.2117788,0.109349184,-0.007055687,0.07540404,0.036600627,2.5053637,-1.7699562,-2.9494176,0.06717596,131.26224,0.98576164,0.29889897,0.44625726,0.21682332,0.1047497,inf,inf,inf,inf,1,1,1,1,2,0,2,1,3,1,1,1
33890097,16344161,-33.9385866,18.8741493,-0.3287274,0.552346,-1.2678682,0.067668386,-0.028586566,0.0,0.13705878,-0.09087666,-0.95032823,-1.2275236,0.109349184,-0.007055687,0.07540404,-4.9056864,1.6212016,-2.866531,-2.9502223,0.06717596,131.26224,0.99998426,0.2999886,0.44690058,0.21810183,0.104915865,inf,inf,inf,inf,1,1,1,1,2,0,2,1,3,1,1,1
33900101,16344161,-33.9385866,18.8741493,-0.32850504,0.5509928,-1.2820364,0.067668386,-0.028586566,0.0,0.13850123,-0.1103946,-0.95014447,-1.2290677,0.109349184,-0.007055687,0.07540404,-2.8333426,-4.7798004,0.5935058,-2.950888,0.06717596,131.26224,1.0141525,0.30109337,0.44754586,0.21939869,0.105086215,inf,inf,inf,inf,1,1,1,1,2,0,2,1,3,1,1,1
33910108,16344161,-33.9385866,18.8741493,-0.3283944,0.5495921,-1.2961226,0.067668386,-0.028586566,0.0,0.12876768,-0.095668666,-0.96504533,-1.2455088,0.109349184,-0.007055687,0.07540404,0.1079613,0.22756079,-0.6476179,-2.9518304,0.06717596,131.26224,1.0282387,0.30221337,0.44819313,0.22067985,0.1052554,inf,inf,inf,inf,1,1,1,1,2,0,2,1,3,1,1,1
33920147,16344161,-33.9385866,18.8741493,-0.32835984,0.548255,-1.3101791,0.067668386,-0.028586566,0.0,0.11431366,-0.095689416,-0.97380394,-1.2556256,0.109349184,-0.007055687,0.07540404,-0.852872,-0.40568873,-0.7428433,-2.952229,0.06717596,131.26224,1.0422952,0.30334866,0.44884238,0.22197399,0.10542541,inf,inf,inf,inf,1,1,1,1,2,0,2,1,3,1,1,1
33930124,16344161,-33.9385866,18.8741493,-0.3284266,0.5469471,-1.3241105,0.067668386,-0.028586566,0.0,0.10379126,-0.10889692,-0.9832777,-1.2662851,0.109349184,-0.007055687,0.07540404,-0.588095,-4.680294,-0.86079156,-2.9529512,0.06717596,131.26224,1.0562266,0.30449948,0.44949365,0.22326508,0.10559152,inf,inf,inf,inf,1,1,1,1,2,0,2,1,3,1,1,1
33940118,16344161,-33.9385866,18.8741493,-0.32855287,0.5456007,-1.3397135,0.067668386,-0.028586566,0.0,0.09021352,-0.081193864,-0.99028265,-1.2760824,0.109349184,-0.007055687,0.07540404,-2.2037392,4.3377748,-1.8416116,-2.9536269,0.06717596,131.26224,1.0718296,0.30566576,0.44646943,0.22455086,0.10543161,inf,inf,inf,inf,1,1,1,1,2,0,2,1,3,1,1,1
33950118,16344161,-33.9385866,18.8741493,-0.32880127,0.54433995,-1.3552586,0.067668386,-0.028586566,0.0,0.08303155,-0.084412165,-1.0045812,-1.2929363,0.109349184,-0.007055687,0.07540404,0.17589062,3.0644886,-1.1721432,-2.95383,0.06717596,131.26224,1.0873747,0.3068477,0.44711936,0.22584534,0.105598636,inf,inf,inf,inf,1,1,1,1,2,0,2,1,3,1,1,1
33960123,16344161,-33.9385866,18.8741493,-0.3290863,0.5430318,-1.3707331,0.067668386,-0.028586566,0.0,0.06806336,-0.0985429,-1.0119635,-1.3026463,0.109349184,-0.007055687,0.07540404,-2.4218144,0.75539684,0.10256916,-2.9545572,0.06717596,131.26224,1.1028492,0.30804536,0.44777128,0.22713727,0.10576468,inf,inf,inf,inf,1,1,1,1,2,0,2,1,3,1,1,1
33970125,16344161,-33.9385866,18.8741493,-0.32947174,0.5417897,-1.3860976,0.067668386,-0.028586566,0.0,0.06907251,-0.08968661,-1.0173491,-1.3101393,0.109349184,-0.007055687,0.07540404,1.392073,-0.19695945,1.1289549,-2.9548516,0.06717596,131.26224,1.1182137,0.3092589,0.44842523,0.22843836,0.10593719,inf,inf,inf,inf,1,1,1,1,2,0,2,1,3,1,1,1
33980130,16344161,-33.9385866,18.8741493,-0.32997718,0.54057205,-1.4013493,0.067668386,-0.028586566,0.0,0.05086469,-0.09078773,-1.0337105,-1.3283981,0.109349184,-0.007055687,0.07540404,1.7481875,-0.31546322,-1.6075407,-2.9549007,0.06717596,131.26224,1.1334654,0.3104885,0.44908118,0.2297335,0.106101766,inf,inf,inf,inf,1,1,1,1,2,0,2,1,3,1,1,1
33990136,16344161,-33.9385866,18.8741493,-0.3305027,0.53864235,-1.4166589,0.067668386,-0.028586566,0.0,0.032697767,-0.097081475,-1.0432677,-1.3397979,0.109349184,-0.007055687,0.07540404,-2.683734,0.72251564,-2.485403,-2.9555428,0.06717596,131.26224,1.148775,0.2891997,0.44514167,0.20096739,0.10332748,inf,inf,inf,inf,1,1,1,1,2,0,2,1,3,1,1,1
34000135,16344161,-33.9385866,18.8741493,-0.33114606,0.53685117,-1.4319139,0.067668386,-0.028586566,0.0,0.016793672,-0.09437476,-1.0547723,-1.3529453,0.109349184,-0.007055687,0.07540404,-3.6672146,-3.3454666,-1.7417504,-2.95539,0.06717596,131.26224,1.16403,0.29016858,0.44577307,0.20211786,0.10349398,inf,inf,inf,inf,1,1,1,1,2,0,2,1,3,1,1,1
34010154,16344161,-33.9385866,18.8741493,-0.33184928,0.5349906,-1.4470937,0.067668386,-0.028586566,0.0,0.01286193,-0.093309365,-1.0579127,-1.3575352,0.109349184,-0.007055687,0.07540404,-3.0302975,0.98428065,-0.7383152,-2.955628,0.06717596,131.26224,1.1792098,0.29115075,0.44640642,0.20327255,0.103657424,inf,inf,inf,inf,1,1,1,1,2,0,2,1,3,1,1,1
34020142,16344161,-33.9385866,18.8741493,-0.33266363,0.5331505,-1.4638852,0.067668386,-0.028586566,0.0,0.009722162,-0.093209155,-1.0614432,-1.3640647,0.109349184,-0.007055687,0.07540404,1.138123,1.5961615,1.7083433,-2.956426,0.06717596,131.26224,1.1960013,0.29214633,0.44343922,0.20442289,0.10350702,inf,inf,inf,inf,1,1,1,1,2,0,2,1,3,1,1,1
34030146,16344161,-33.9385866,18.8741493,-0.33355215,0.5313871,-1.4805238,0.067668386,-0.028586566,0.0,-0.0075083054,-0.10114081,-1.0730164,-1.3783821,0.109349184,-0.007055687,0.07540404,-0.24656686,-2.8282228,-0.052082732,-2.9564524,0.06717596,131.26224,1.2126399,0.2931554,0.44407132,0.20558283,0.10367435,inf,inf,inf,inf,1,1,1,1,2,0,2,1,3,1,1,1
34040149,16344161,-33.9385866,18.8741493,-0.3345199,0.5295609,-1.4970696,0.067668386,-0.028586566,0.0,-0.010341819,-0.102312736,-1.087452,-1.3953195,0.109349184,-0.007055687,0.07540404,1.3424573,-0.54211646,-0.82888246,-2.9570425,0.06717596,131.26224,1.2291857,0.29417825,0.44470543,0.2067475,0.10384142,inf,inf,inf,inf,1,1,1,1,2,0,2,1,3,1,1,1
34050153,16344161,-33.9385866,18.8741493,-0.3355901,0.5277945,-1.5134872,0.067668386,-0.028586566,0.0,-0.03504638,-0.079042785,-1.0969157,-1.4070518,0.109349184,-0.007055687,0.07540404,-1.2701123,5.0161214,-2.1756375,-2.9571514,0.06717596,131.26224,1.2456033,0.29521483,0.44534147,0.20790514,0.10400556,inf,inf,inf,inf,1,1,1,1,2,0,2,1,3,1,1,1
34060158,16344161,-33.9385866,18.8741493,-0.33674297,0.5260602,-1.529817,0.067668386,-0.028586566,0.0,-0.0416641,-0.10190053,-1.1023372,-1.4145166,0.109349184,-0.007055687,0.07540404,-1.5479469,0.18519557,-0.43969017,-2.9575708,0.06717596,131.26224,1.2619331,0.2962652,0.44597945,0.20907974,0.10417556,inf,inf,inf,inf,1,1,1,1,2,0,2,1,3,1,1,1
34070160,16344161,-33.9385866,18.8741493,-0.3380066,0.5243046,-1.5460804,0.067668386,-0.028586566,0.0,-0.056632433,-0.10973615,-1.1182978,-1.4323057,0.109349184,-0.007055687,0.07540404,-1.4516348,-2.7820835,-0.6874906,-2.9585235,0.06717596,131.26224,1.2781965,0.2973296,0.44661942,0.21022823,0.10433769,inf,inf,inf,inf,1,1,1,1,2,0,2,1,3,1,1,1
34080165,16344161,-33.9385866,18.8741493,-0.33936548,0.5226353,-1.5622793,0.067668386,-0.028586566,0.0,-0.06947127,-0.099914506,-1.1310558,-1.4466846,0.109349184,-0.007055687,0.07540404,-2.0197914,-3.238706,-1.397949,-2.958218,0.06717596,131.26224,1.2943954,0.29840788,0.4472613,0.21139574,0.104502514,inf,inf,inf,inf,1,1,1,1,2,0,2,1,3,1,1,1
34090167,16344161,-33.9385866,18.8741493,-0.34085485,0.5209153,-1.5783875,0.067668386,-0.028586566,0.0,-0.07725194,-0.105286926,-1.1389087,-1.4559604,0.109349184,-0.007055687,0.07540404,0.51262695,-0.9926382,-1.4770085,-2.9582675,0.06717596,131.26224,1.3105036,0.29950032,0.44790518,0.21256338,0.10466847,inf,inf,inf,inf,1,1,1,1,2,0,2,1,3,1,1,1
34100173,16344161,-33.9385866,18.8741493,-0.34242383,0.51920134,-1.5944036,0.067668386,-0.028586566,0.0,-0.10565313,-0.09296785,-1.1490971,-1.4673806,0.109349184,-0.007055687,0.07540404,-4.687341,2.6166487,-2.273518,-2.9585721,0.06717596,131.26224,1.3265197,0.30060697,0.448551,0.2137248,0.104833685,inf,inf,inf,inf,1,1,1,1,2,0,2,1,3,1,1,1
34110174,16344161,-33.9385866,18.8741493,-0.34412575,0.5175665,-1.6121709,0.067668386,-0.028586566,0.0,-0.10799406,-0.106355526,-1.1501781,-1.4713517,0.109349184,-0.007055687,0.07540404,-2.1127725,-2.450394,0.3861877,-2.958468,0.06717596,131.26224,1.344287,0.30172786,0.44554436,0.2149027,0.104672566,inf,inf,inf,inf,1,1,1,1,2,0,2,1,3,1,1,1
34120177,16344161,-33.9385866,18.8741493,-0.3459088,0.51585585,-1.6297809,0.067668386,-0.028586566,0.0,-0.11597932,-0.0994986,-1.1613905,-1.4851977,0.109349184,-0.007055687,0.07540404,-0.59758145,2.2176485,-0.51273817,-2.9586473,0.06717596,131.26224,1.361897,0.3028631,0.44618884,0.21606652,0.10483652,inf,inf,inf,inf,1,1,1,1,2,0,2,1,3,1,1,1
34130183,16344161,-33.9385866,18.8741493,-0.34779721,0.51420385,-1.6472923,0.067668386,-0.028586566,0.0,-0.12084784,-0.094317675,-1.1684053,-1.4946007,0.109349184,-0.007055687,0.07540404,2.152262,2.9320738,0.7835836,-2.9584808,0.06717596,131.26224,1.3794084,0.30401284,0.44683534,0.21723442,0.10500221,inf,inf,inf,inf,1,1,1,1,2,0,2,1,3,1,1,1
34140184,16344161,-33.9385866,18.8741493,-0.3497858,0.5125779,-1.6646435,0.067668386,-0.028586566,0.0,-0.14249948,-0.112928115,-1.1825926,-1.5109408,0.109349184,-0.007055687,0.07540404,0.08506489,-2.479508,-1.9990046,-2.958393,0.06717596,131.26224,1.3967596,0.30517706,0.44748384,0.21839808,0.1051629,inf,inf,inf,inf,1,1,1,1,2,0,2,1,3,1,1,1
34150188,16344161,-33.9385866,18.8741493,-0.35183755,0.5108932,-1.6818972,0.067668386,-0.028586566,0.0,-0.16270286,-0.11204446,-1.1928003,-1.5230737,0.109349184,-0.007055687,0.07540404,-4.65226,-1.0354741,-2.4596837,-2.9588792,0.06717596,131.26224,1.4140133,0.30635583,0.44813424,0.21957396,0.10532909,inf,inf,inf,inf,1,1,1,1,2,0,2,1,3,1,1,1
34160191,16344161,-33.9385866,18.8741493,-0.35402644,0.5093274,-1.6990643,0.067668386,-0.028586566,0.0,-0.17303267,-0.101519644,-1.2005433,-1.5325251,0.109349184,-0.007055687,0.07540404,-3.518531,-1.8139516,-1.5772122,-2.9586625,0.06717596,131.26224,1.4311804,0.3075494,0.44878668,0.2207506,0.105494976,inf,inf,inf,inf,1,1,1,1,2,0,2,1,3,1,1,1
34170194,16344161,-33.9385866,18.8741493,-0.3563125,0.5076682,-1.7161312,0.067668386,-0.028586566,0.0,-0.18072289,-0.107313916,-1.2039677,-1.5374484,0.109349184,-0.007055687,0.07540404,-2.2618563,1.7653226,0.10132914,-2.959168,0.06717596,131.26224,1.4482473,0.3087577,0.44944108,0.22192845,0.10565997,inf,inf,inf,inf,1,1,1,1,2,0,2,1,3,1,1,1
34180199,16344161,-33.9385866,18.8741493,-0.35876167,0.50605875,-1.7331523,0.067668386,-0.028586566,0.0,-0.18969867,-0.1066699,-1.217801,-1.552581,0.109349184,-0.007055687,0.07540404,1.4384271,0.055741407,0.836616,-2.9596434,0.06717596,131.26224,1.4652684,0.30998087,0.45009747,0.22309728,0.10582149,inf,inf,inf,inf,1,1,1,1,2,0,2,1,3,1,1,1
34190203,16344161,-33.9385866,18.8741493,-0.3608477,0.5035906,-1.749836,0.067668386,-0.028586566,0.0,-0.211583,-0.11287602,-1.2296355,-1.565274,0.109349184,-0.007055687,0.07540404,-1.0441359,-3.4795935,-0.99236673,-2.9595785,0.06717596,131.26224,1.4819521,0.28866774,0.44614017,0.19626135,0.1031097,inf,inf,inf,inf,1,1,1,1,2,0,2,1,3,1,1,1
34200262,16344161,-33.9385866,18.8741493,-0.3630617,0.5010407,-1.7682048,0.067668386,-0.028586566,0.0,-0.2148276,-0.10938659,-1.2429961,-1.5810083,0.109349184,-0.007055687,0.07540404,0.8416278,1.4636072,-1.8231248,-2.9601934,0.06717596,131.26224,1.5003209,0.28964254,0.44317615,0.1973176,0.102963544,inf,inf,inf,inf,1,1,1,1,2,0,2,1,3,1,1,1
34210206,16344161,-33.9385866,18.8741493,-0.36535692,0.4985851,-1.7863213,0.067668386,-0.028586566,0.0,-0.23919317,-0.09162446,-1.2514598,-1.5916042,0.109349184,-0.007055687,0.07540404,-2.0752745,5.447235,-1.4965945,-2.9599774,0.06717596,131.26224,1.5184374,0.29063,0.44380495,0.19836424,0.103125595,inf,inf,inf,inf,1,1,1,1,2,0,2,1,3,1,1,1
34220212,16344161,-33.9385866,18.8741493,-0.36776647,0.49612603,-1.8044145,0.067668386,-0.028586566,0.0,-0.24037597,-0.12455535,-1.2564812,-1.5985278,0.109349184,-0.007055687,0.07540404,-0.43287173,-1.1892172,0.29753667,-2.9601424,0.06717596,131.26224,1.5365306,0.2916302,0.44443572,0.199438,0.10329172,inf,inf,inf,inf,1,1,1,1,2,0,2,1,3,1,1,1
34230220,16344161,-33.9385866,18.8741493,-0.37028173,0.49365723,-1.8223916,0.067668386,-0.028586566,0.0,-0.26012892,-0.12549995,-1.2678981,-1.6116261,0.109349184,-0.007055687,0.07540404,-1.9398696,-2.8271046,-0.43958142,-2.9606721,0.06717596,131.26224,1.5545077,0.2926432,0.44506845,0.20048432,0.10345456,inf,inf,inf,inf,1,1,1,1,2,0,2,1,3,1,1,1
34240227,16344161,-33.9385866,18.8741493,-0.37290126,0.49129173,-1.8402408,0.067668386,-0.028586566,0.0,-0.26657385,-0.118224375,-1.2759058,-1.6211022,0.109349184,-0.007055687,0.07540404,-1.3020625,-3.5355525,-1.296317,-2.9602885,0.06717596,131.26224,1.5723569,0.29366902,0.44570306,0.20154215,0.10361963,inf,inf,inf,inf,1,1,1,1,2,0,2,1,3,1,1,1
34250226,16344161,-33.9385866,18.8741493,-0.37564898,0.4888659,-1.8579772,0.067668386,-0.028586566,0.0,-0.28136826,-0.12027306,-1.2858151,-1.6322768,0.109349184,-0.007055687,0.07540404,-0.8513555,0.22147205,-1.7953674,-2.960289,0.06717596,131.26224,1.5900933,0.29470783,0.44633964,0.20260474,0.10378344,inf,inf,inf,inf,1,1,1,1,2,0,2,1,3,1,1,1
34260227,16344161,-33.9385866,18.8741493,-0.3784839,0.48646194,-1.8756077,0.067668386,-0.028586566,0.0,-0.29968363,-0.10820078,-1.2887415,-1.6362728,0.109349184,-0.007055687,0.07540404,-3.9526615,4.066499,-0.8401413,-2.9601967,0.06717596,131.26224,1.6077238,0.29575968,0.44697812,0.20365882,0.103946194,inf,inf,inf,inf,1,1,1,1,2,0,2,1,3,1,1,1
34270229,16344161,-33.9385866,18.8741493,-0.381478,0.48416942,-1.8931901,0.067668386,-0.028586566,0.0,-0.3053369,-0.12637214,-1.2995615,-1.647976,0.109349184,-0.007055687,0.07540404,-0.8565502,-3.2936125,0.47662467,-2.9601178,0.06717596,131.26224,1.6253062,0.29682463,0.44761857,0.20473942,0.104113385,inf,inf,inf,inf,1,1,1,1,2,0,2,1,3,1,1,1
34280232,16344161,-33.9385866,18.8741493,-0.38456655,0.48177457,-1.9123269,0.067668386,-0.028586566,0.0,-0.31352594,-0.1230207,-1.3093432,-1.6601061,0.109349184,-0.007055687,0.07540404,0.112670735,1.1818556,0.21736883,-2.9604583,0.06717596,131.26224,1.644443,0.29790273,0.44462913,0.20578776,0.10395358,inf,inf,inf,inf,1,1,1,1,2,0,2,1,3,1,1,1
34290236,16344161,-33.9385866,18.8741493,-0.38782945,0.479483,-1.9313275,0.067668386,-0.028586566,0.0,-0.32867405,-0.113532975,-1.3202106,-1.6730781,0.109349184,-0.007055687,0.07540404,2.050774,1.4975829,-0.8117418,-2.9599602,0.06717596,131.26224,1.6634436,0.29899397,0.44526827,0.20684867,0.10411633,inf,inf,inf,inf,1,1,1,1,2,0,2,1,3,1,1,1
34740392,16344161,-33.9385866,18.8741493,-0.6844426,0.420709,-2.8461895,0.067668386,-0.028586566,0.0,-0.8218483,-0.08574527,-1.7028637,-2.1055193,0.109349184,-0.007055687,0.07540404,0.28550065,1.8697146,0.45074424,-3.019874,-0.034529295,131.26224,2.5783055,0.30333808,0.44683233,0.2060925,0.104546286,inf,inf,inf,inf,1,1,1,1,2,0,2,1,4,1,1,1
34750395,16344161,-33.9385866,18.8741493,-0.693212,0.42043594,-2.868671,0.067668386,-0.028586566,0.0,-0.84443235,-0.10414328,-1.7231013,-2.1268034,0.109349184,-0.007055687,0.07540404,-2.1483207,-5.018126,-1.6676708,-3.0203815,-0.034529295,131.26224,2.600787,0.30445942,0.44747764,0.20721714,0.10472941,inf,inf,inf,inf,1,1,1,1,2,0,2,1,4,1,1,1
35030492,16344161,-33.9385866,18.8741493,-0.97100884,0.39264202,-3.53569,0.067668386,-0.028586566,0.0,-0.93487513,-0.096586294,-2.1675606,-2.5767775,0.109349184,-0.007055687,0.07540404,2.8529842,3.4560535,-1.36192,-3.0307238,-0.034529295,131.26224,3.267806,0.29065832,0.44545764,0.18975809,0.10348472,inf,inf,inf,inf,1,1,1,1,2,0,2,1,4,1,1,1
35040496,16344161,-33.9385866,18.8741493,-0.9808206,0.39097017,-3.5610054,0.067668386,-0.028586566,0.0,-0.9266084,-0.10985579,-2.1807046,-2.5891402,0.109349184,-0.007055687,0.07540404,1.613915,-3.068023,-1.9321291,-3.0303595,-0.034529295,131.26224,3.2931213,0.29163146,0.44608805,0.19084753,0.103680775,inf,inf,inf,inf,1,1,1,1,2,0,2,1,4,1,1,1
35050499,16344161,-33.9385866,18.8741493,-0.99066335,0.38913274,-3.5863748,0.067668386,-0.028586566,0.0,-0.9354492,-0.10689281,-2.2042134,-2.6117368,0.109349184,-0.007055687,0.07540404,1.8037359,3.7736382,-2.370204,-3.0310028,-0.034529295,131.26224,3.3184907,0.2926154,0.44672036,0.19182989,0.10387061,inf,inf,inf,inf,1,1,1,1,2,0,2,1,4,1,1,1
35060502,16344161,-33.9385866,18.8741493,-1.000451,0.38743973,-3.6137831,0.067668386,-0.028586566,0.0,-0.93310577,-0.102281265,-2.2244377,-2.6329176,0.109349184,-0.007055687,0.07540404,-0.04447213,0.41649854,-2.7269394,-3.031047,-0.034529295,131.26224,3.345899,0.29361027,0.44374463,0.19292131,0.10375476,inf,inf,inf,inf,1,1,1,1,2,0,2,1,4,1,1,1
35070505,16344161,-33.9385866,18.8741493,-1.0102657,0.38569653,-3.6411712,0.067668386,-0.028586566,0.0,-0.9354544,-0.10602556,-2.238057,-2.6472867,0.109349184,-0.007055687,0.07540404,1.2307416,2.427576,-1.6563196,-3.0308363,-0.034529295,131.26224,3.3732872,0.29461607,0.44437575,0.1939192,0.103945516,inf,inf,inf,inf,1,1,1,1,2,0,2,1,4,1,1,1
35080509,16344161,-33.9385866,18.8741493,-1.0200169,0.38391277,-3.6685483,0.067668386,-0.028586566,0.0,-0.9352199,-0.116077155,-2.2623277,-2.672109,0.109349184,-0.007055687,0.07540404,-0.9517961,1.3421558,-3.1396546,-3.031501,-0.034529295,131.26224,3.4006643,0.295633,0.44500878,0.1950148,0.104142904,inf,inf,inf,inf,1,1,1,1,2,0,2,1,4,1,1,1
35090550,16344161,-33.9385866,18.8741493,-1.0298135,0.3822014,-3.6960244,0.067668386,-0.028586566,0.0,-0.93414026,-0.09553857,-2.2745228,-2.6846657,0.109349184,-0.007055687,0.07540404,0.40106595,4.0777,-1.2030272,-3.0309303,-0.034529295,131.26224,3.4281404,0.296661,0.44564378,0.19600414,0.10433377,inf,inf,inf,inf,1,1,1,1,2,0,2,1,4,1,1,1
35100516,16344161,-33.9385866,18.8741493,-1.0395057,0.38047385,-3.7233233,0.067668386,-0.028586566,0.0,-0.9361438,-0.12845288,-2.2972622,-2.7075853,0.109349184,-0.007055687,0.07540404,-0.913893,-2.0909827,-2.3297503,-3.0311084,-0.034529295,131.26224,3.4554393,0.2977003,0.44628072,0.19709665,0.10453077,inf,inf,inf,inf,1,1,1,1,2,0,2,1,4,1,1,1
35110519,16344161,-33.9385866,18.8741493,-1.0492209,0.37868908,-3.75071,0.067668386,-0.028586566,0.0,-0.92918754,-0.10260391,-2.3058152,-2.716145,0.109349184,-0.007055687,0.07540404,1.0411347,5.0749364,-0.13534772,-3.0309837,-0.034529295,131.26224,3.482826,0.2987509,0.44691965,0.1981178,0.10472472,inf,inf,inf,inf,1,1,1,1,2,0,2,1,4,1,1,1
35120523,16344161,-33.9385866,18.8741493,-1.0589452,0.3770535,-3.7780795,0.067668386,-0.028586566,0.0,-0.93885773,-0.123588644,-2.3271792,-2.7373495,0.109349184,-0.007055687,0.07540404,-0.28060004,-3.9732046,-1.4618474,-3.0304606,-0.034529295,131.26224,3.5101955,0.29981282,0.44756055,0.1991796,0.10491995,inf,inf,inf,inf,1,1,1,1,2,0,2,1,4,1,1,1
35130526,16344161,-33.9385866,18.8741493,-1.0686337,0.37523058,-3.8054242,0.067668386,-0.028586566,0.0,-0.9232636,-0.12523961,-2.3324687,-2.742321,0.109349184,-0.007055687,0.07540404,2.5510347,1.3745538,0.3705534,-3.030873,-0.034529295,131.26224,3.5375402,0.30088633,0.44820338,0.20022489,0.10511509,inf,inf,inf,inf,1,1,1,1,2,0,2,1,4,1,1,1
35140531,16344161,-33.9385866,18.8741493,-1.0783201,0.37352988,-3.832765,0.067668386,-0.028586566,0.0,-0.94018906,-0.120416135,-2.3576086,-2.7669911,0.109349184,-0.007055687,0.07540404,-0.5441039,-1.6813596,-1.7507094,-3.0303512,-0.034529295,131.26224,3.564881,0.30197126,0.44884822,0.20126681,0.10530922,inf,inf,inf,inf,1,1,1,1,2,0,2,1,4,1,1,1
35150533,16344161,-33.9385866,18.8741493,-1.0879859,0.37178645,-3.861831,0.067668386,-0.028586566,0.0,-0.920566,-0.1339578,-2.358999,-2.7695422,0.109349184,-0.007055687,0.07540404,3.3845806,-3.1349978,0.38033387,-3.029881,-0.034529295,131.26224,3.593947,0.30306795,0.44583338,0.20232908,0.105182774,inf,inf,inf,inf,1,1,1,1,2,0,2,1,4,1,1,1
35160537,16344161,-33.9385866,18.8741493,-1.097609,0.36995754,-3.8907762,0.067668386,-0.028586566,0.0,-0.94129366,-0.13590854,-2.3794942,-2.7909815,0.109349184,-0.007055687,0.07540404,-2.0101204,-1.2498554,-2.603482,-3.0301206,-0.034529295,131.26224,3.6228921,0.30417618,0.44647688,0.20337896,0.10537749,inf,inf,inf,inf,1,1,1,1,2,0,2,1,4,1,1,1
35170540,16344161,-33.9385866,18.8741493,-1.1072655,0.3682406,-3.919608,0.067668386,-0.028586566,0.0,-0.9308264,-0.12090376,-2.3792808,-2.791505,0.109349184,-0.007055687,0.07540404,0.92854977,-1.0169832,-1.0835173,-3.0295157,-0.034529295,131.26224,3.651724,0.30529645,0.4471224,0.20442611,0.1055739,inf,inf,inf,inf,1,1,1,1,2,0,2,1,4,1,1,1
35180544,16344161,-33.9385866,18.8741493,-1.116822,0.36639506,-3.9482608,0.067668386,-0.028586566,0.0,-0.9393824,-0.14571327,-2.3843842,-2.7971468,0.109349184,-0.007055687,0.07540404,-3.9802525,-1.487768,-2.094279,-3.0297906,-0.034529295,131.26224,3.6803768,0.30642828,0.4477699,0.20552222,0.10577217,inf,inf,inf,inf,1,1,1,1,2,0,2,1,4,1,1,1
35190548,16344161,-33.9385866,18.8741493,-1.126961,0.36389798,-3.9757094,0.067668386,-0.028586566,0.0,-0.9336523,-0.11653726,-2.3760602,-2.7880702,0.109349184,-0.007055687,0.07540404,0.37324354,4.5054274,1.5913787,-3.0298471,-0.034529295,131.26224,3.7078254,0.28627846,0.4439525,0.1837486,0.10314374,inf,inf,inf,inf,1,1,1,1,2,0,2,1,4,1,1,1
35200551,16344161,-33.9385866,18.8741493,-1.137039,0.36152065,-4.003001,0.067668386,-0.028586566,0.0,-0.9246752,-0.14351945,-2.3773813,-2.7885046,0.109349184,-0.007055687,0.07540404,2.4128153,-4.288559,1.64063,-3.0295968,-0.034529295,131.26224,3.7351172,0.28720397,0.44457603,0.1847856,0.103343844,inf,inf,inf,inf,1,1,1,1,2,0,2,1,4,1,1,1
35210555,16344161,-33.9385866,18.8741493,-1.147127,0.35893205,-4.0301394,0.067668386,-0.028586566,0.0,-0.9369441,-0.14345565,-2.3797777,-2.789887,0.109349184,-0.007055687,0.07540404,0.9992583,2.4655266,0.061643966,-3.0301776,-0.034529295,131.26224,3.7622554,0.28813982,0.44520152,0.18573019,0.10353572,inf,inf,inf,inf,1,1,1,1,2,0,2,1,4,1,1,1
35220559,16344161,-33.9385866,18.8741493,-1.1571759,0.35659602,-4.057073,0.067668386,-0.028586566,0.0,-0.9427558,-0.11850067,-2.3778954,-2.786869,0.109349184,-0.007055687,0.07540404,-2.4867845,1.0361552,-2.455432,-3.0296845,-0.034529295,131.26224,3.789189,0.28908604,0.4458289,0.1867641,0.10373594,inf,inf,inf,inf,1,1,1,1,2,0,2,1,4,1,1,1
35230561,16344161,-33.9385866,18.8741493,-1.1672313,0.35419607,-4.0838795,0.067668386,-0.028586566,0.0,-0.9391888,-0.15834042,-2.3635502,-2.7712731,0.109349184,-0.007055687,0.07540404,-0.7637528,-4.84737,2.2672653,-3.0295932,-0.034529295,131.26224,3.8159955,0.29004276,0.44645825,0.18774603,0.10393104,inf,inf,inf,inf,1,1,1,1,2,0,2,1,4,1,1,1
35240565,16344161,-33.9385866,18.8741493,-1.1773337,0.35165638,-4.112082,0.067668386,-0.028586566,0.0,-0.9376336,-0.13685048,-2.3515196,-2.7595205,0.109349184,-0.007055687,0.07540404,2.7565782,4.27297,3.054063,-3.0298455,-0.034529295,131.26224,3.844198,0.29101002,0.4434859,0.18874827,0.1038198,inf,inf,inf,inf,1,1,1,1,2,0,2,1,4,1,1,1
35250568,16344161,-33.9385866,18.8741493,-1.1873192,0.34937114,-4.139922,0.067668386,-0.028586566,0.0,-0.9386964,-0.12940733,-2.3438914,-2.7519932,0.109349184,-0.007055687,0.07540404,-1.2398385,-0.48170626,-0.8591987,-3.029162,-0.034529295,131.26224,3.8720381,0.29198793,0.44411403,0.18975179,0.104017004,inf,inf,inf,inf,1,1,1,1,2,0,2,1,4,1,1,1
35260572,16344161,-33.9385866,18.8741493,-1.197282,0.34697035,-4.1675262,0.067668386,-0.028586566,0.0,-0.9380195,-0.16065171,-2.3307133,-2.7387462,0.109349184,-0.007055687,0.07540404,-1.2661371,-3.5080876,1.1284157,-3.0290394,-0.034529295,131.26224,3.8996422,0.29297662,0.44474414,0.19074629,0.10421467,inf,inf,inf,inf,1,1,1,1,2,0,2,1,4,1,1,1
35270576,16344161,-33.9385866,18.8741493,-1.207396,0.3445083,-4.1948943,0.067668386,-0.028586566,0.0,-0.95787394,-0.13556588,-2.3218668,-2.7296693,0.109349184,-0.007055687,0.07540404,-0.34821936,4.2623973,2.2504876,-3.028699,-0.034529295,131.26224,3.9270103,0.29397604,0.44537622,0.19176261,0.10441247,inf,inf,inf,inf,1,1,1,1,2,0,2,1,4,1,1,1
35280603,16344161,-33.9385866,18.8741493,-1.2175175,0.34221718,-4.221947,0.067668386,-0.028586566,0.0,-0.9498103,-0.14776646,-2.2994065,-2.7068243,0.109349184,-0.007055687,0.07540404,0.27407154,-2.906029,1.4741256,-3.0281458,-0.034529295,131.26224,3.9540632,0.29498637,0.4460103,0.19273649,0.104608804,inf,inf,inf,inf,1,1,1,1,2,0,2,1,4,1,1,1
35290582,16344161,-33.9385866,18.8741493,-1.2274868,0.33981118,-4.2485504,0.067668386,-0.028586566,0.0,-0.9379641,-0.15298249,-2.2798297,-2.686715,0.109349184,-0.007055687,0.07540404,1.1386735,-0.06791771,2.1899939,-3.0282524,-0.034529295,131.26224,3.9806664,0.2960077,0.4466463,0.19378878,0.10481112,inf,inf,inf,inf,1,1,1,1,2,0,2,1,4,1,1,1
35300628,16344161,-33.9385866,18.8741493,-1.2375263,0.3374048,-4.2749996,0.067668386,-0.028586566,0.0,-0.9558183,-0.1484528,-2.2673392,-2.6735504,0.109349184,-0.007055687,0.07540404,-2.0152628,1.209316,1.527243,-3.0275943,-0.034529295,131.26224,4.007116,0.29704002,0.4472843,0.19473206,0.105003044,inf,inf,inf,inf,1,1,1,1,2,0,2,1,4,1,1,1
35310608,16344161,-33.9385866,18.8741493,-1.247583,0.3350807,-4.3009887,0.067668386,-0.028586566,0.0,-0.95499563,-0.15312408,-2.248845,-2.6542478,0.109349184,-0.007055687,0.07540404,0.36545405,-1.9429259,1.6600096,-3.027066,-0.034529295,131.26224,4.033105,0.29808348,0.4479243,0.1958129,0.105208375,inf,inf,inf,inf,1,1,1,1,2,0,2,1,4,1,1,1
35320591,16344161,-33.9385866,18.8741493,-1.2576251,0.33269924,-4.328167,0.067668386,-0.028586566,0.0,-0.956673,-0.14557858,-2.233626,-2.6395853,0.109349184,-0.007055687,0.07540404,-0.07987897,2.816828,1.7432986,-3.0272467,-0.034529295,131.26224,4.060283,0.2991381,0.44492704,0.19674774,0.105081476,inf,inf,inf,inf,1,1,1,1,2,0,2,1,4,1,1,1
35330596,16344161,-33.9385866,18.8741493,-1.2677237,0.33044168,-4.355055,0.067668386,-0.028586566,0.0,-0.96703327,-0.15286784,-2.2192218,-2.6255496,0.109349184,-0.007055687,0.07540404,-1.304596,-3.016204,1.3203669,-3.02642,-0.034529295,131.26224,4.087171,0.300204,0.4455658,0.19783513,0.10528757,inf,inf,inf,inf,1,1,1,1,2,0,2,1,4,1,1,1
35340599,16344161,-33.9385866,18.8741493,-1.2779135,0.3280046,-4.381588,0.067668386,-0.028586566,0.0,-0.9745395,-0.1607697,-2.1969945,-2.60351,0.109349184,-0.007055687,0.07540404,-0.25933447,1.6356653,2.4986,-3.026288,-0.034529295,131.26224,4.113704,0.3012812,0.44620654,0.1987924,0.10548064,inf,inf,inf,inf,1,1,1,1,2,0,2,1,4,1,1,1
35350602,16344161,-33.9385866,18.8741493,-1.288075,0.3256954,-4.407715,0.067668386,-0.028586566,0.0,-0.9659506,-0.14829162,-2.1716769,-2.5782075,0.109349184,-0.007055687,0.07540404,0.89585245,0.21274067,2.828576,-3.0259545,-0.034529295,131.26224,4.139831,0.30236995,0.4468493,0.19982916,0.10568158,inf,inf,inf,inf,1,1,1,1,2,0,2,1,4,1,1,1
35360606,16344161,-33.9385866,18.8741493,-1.2981333,0.3234174,-4.4334106,0.067668386,-0.028586566,0.0,-0.9578131,-0.15370722,-2.146476,-2.5528567,0.109349184,-0.007055687,0.07540404,0.5973321,-0.7332566,2.2379913,-3.0250888,-0.034529295,131.26224,4.165527,0.30347002,0.44749406,0.20078678,0.10587455,inf,inf,inf,inf,1,1,1,1,2,0,2,1,4,1,1,1
35370609,16344161,-33.9385866,18.8741493,-1.3082083,0.3209869,-4.458753,0.067668386,-0.028586566,0.0,-0.97297704,-0.17737743,-2.1304927,-2.5365658,0.109349184,-0.007055687,0.07540404,-1.7979821,-1.6745075,1.963306,-3.025356,-0.034529295,131.26224,4.1908693,0.30458173,0.44814086,0.20177495,0.10607146,inf,inf,inf,inf,1,1,1,1,2,0,2,1,4,1,1,1
35380613,16344161,-33.9385866,18.8741493,-1.3192466,0.31831953,-4.4829516,0.067668386,-0.028586566,0.0,-0.9791907,-0.1433538,-2.1034012,-2.5082254,0.109349184,-0.007055687,0.07540404,-0.21237461,4.0103445,2.4702494,-3.0246034,-0.034529295,131.26224,4.215068,0.28482667,0.44433102,0.18103854,0.10342597,inf,inf,inf,inf,1,1,1,1,2,0,2,1,4,1,1,1
35390616,16344161,-33.9385866,18.8741493,-1.3303107,0.31576392,-4.506806,0.067668386,-0.028586566,0.0,-0.98532623,-0.16975306,-2.0831273,-2.4865932,0.109349184,-0.007055687,0.07540404,-0.22966771,-4.0114913,2.4234776,-3.0240953,-0.034529295,131.26224,4.238922,0.28574082,0.44495368,0.18196438,0.10362142,inf,inf,inf,inf,1,1,1,1,2,0,2,1,4,1,1,1
35400627,16344161,-33.9385866,18.8741493,-1.3413204,0.31305563,-4.530272,0.067668386,-0.028586566,0.0,-0.9773966,-0.16163178,-2.0499902,-2.4519942,0.109349184,-0.007055687,0.07540404,0.4245211,2.8053133,3.008833,-3.0242062,-0.034529295,131.26224,4.262388,0.2866651,0.44557828,0.1828675,0.10381468,inf,inf,inf,inf,1,1,1,1,2,0,2,1,4,1,1,1
35410623,16344161,-33.9385866,18.8741493,-1.3523786,0.31050828,-4.5550027,0.067668386,-0.028586566,0.0,-1.0042115,-0.16230644,-2.0347676,-2.436878,0.109349184,-0.007055687,0.07540404,-2.8569117,-1.8572819,1.379633,-3.0232947,-0.034529295,131.26224,4.287119,0.28759947,0.44262236,0.18376191,0.103703536,inf,inf,inf,inf,1,1,1,1,2,0,2,1,4,1,1,1
35420627,16344161,-33.9385866,18.8741493,-1.3635778,0.307818,-4.57937,0.067668386,-0.028586566,0.0,-1.0060657,-0.17793882,-2.0045967,-2.406646,0.109349184,-0.007055687,0.07540404,0.51790345,-0.03566475,3.4289,-3.0230336,-0.034529295,131.26224,4.3114862,0.2885441,0.44324586,0.18468067,0.103899956,inf,inf,inf,inf,1,1,1,1,2,0,2,1,4,1,1,1
35430630,16344161,-33.9385866,18.8741493,-1.3747516,0.3052421,-4.603265,0.067668386,-0.028586566,0.0,-1.0127211,-0.1529339,-1.9760011,-2.3778293,0.109349184,-0.007055687,0.07540404,-1.4133017,2.2427068,2.6799674,-3.0225856,-0.034529295,131.26224,4.335381,0.28949898,0.44387126,0.18559222,0.104092464,inf,inf,inf,inf,1,1,1,1,2,0,2,1,4,1,1,1
35440634,16344161,-33.9385866,18.8741493,-1.385979,0.30275768,-4.626721,0.067668386,-0.028586566,0.0,-1.0145988,-0.16698064,-1.9450418,-2.3464963,0.109349184,-0.007055687,0.07540404,0.79192895,-2.1454093,3.5099554,-3.0217288,-0.034529295,131.26224,4.358837,0.29046425,0.4444987,0.186546,0.10429297,inf,inf,inf,inf,1,1,1,1,2,0,2,1,4,1,1,1
35450637,16344161,-33.9385866,18.8741493,-1.3970749,0.3001502,-4.6496706,0.067668386,-0.028586566,0.0,-0.9993382,-0.17297663,-1.9073361,-2.3082705,0.109349184,-0.007055687,0.07540404,1.1378036,0.38059568,3.727065,-3.0215158,-0.034529295,131.26224,4.381787,0.29143998,0.44512805,0.18742491,0.10448262,inf,inf,inf,inf,1,1,1,1,2,0,2,1,4,1,1,1
35460641,16344161,-33.9385866,18.8741493,-1.4081571,0.29762262,-4.6721544,0.067668386,-0.028586566,0.0,-1.0188274,-0.16290502,-1.8818313,-2.2821066,0.109349184,-0.007055687,0.07540404,-2.588633,0.49362805,2.283465,-3.0205462,-0.034529295,131.26224,4.4042706,0.2924262,0.44575945,0.18830691,0.10467477,inf,inf,inf,inf,1,1,1,1,2,0,2,1,4,1,1,1
35470694,16344161,-33.9385866,18.8741493,-1.4194587,0.2950759,-4.694348,0.067668386,-0.028586566,0.0,-1.0316393,-0.17792383,-1.8557469,-2.2552297,0.109349184,-0.007055687,0.07540404,-0.49180257,-1.674246,2.9748793,-3.0198402,-0.034529295,131.26224,4.426464,0.29342297,0.44639277,0.18925866,0.104874656,inf,inf,inf,inf,1,1,1,1,2,0,2,1,4,1,1,1
35480645,16344161,-33.9385866,18.8741493,-1.4306835,0.2924917,-4.715902,0.067668386,-0.028586566,0.0,-1.0341227,-0.17269431,-1.8195801,-2.2181442,0.109349184,-0.007055687,0.07540404,-0.2772955,1.3524241,3.872999,-3.019382,-0.034529295,131.26224,4.448018,0.29443032,0.44702807,0.19016233,0.10506718,inf,inf,inf,inf,1,1,1,1,2,0,2,1,4,1,1,1
35490651,16344161,-33.9385866,18.8741493,-1.4419758,0.29000717,-4.737062,0.067668386,-0.028586566,0.0,-1.0377412,-0.16795667,-1.7849209,-2.1824458,0.109349184,-0.007055687,0.07540404,-0.09691022,-0.18226922,3.3141613,-3.0182557,-0.034529295,131.26224,4.469178,0.2954484,0.4476654,0.19107895,0.105263636,inf,inf,inf,inf,1,1,1,1,2,0,2,1,4,1,1,1
35500654,16344161,-33.9385866,18.8741493,-1.4532205,0.2874844,-4.758871,0.067668386,-0.028586566,0.0,-1.0319331,-0.17935972,-1.7545236,-2.1520078,0.109349184,-0.007055687,0.07540404,0.49844566,-0.89870125,3.0196207,-3.0180867,-0.034529295,131.26224,4.4909873,0.29647714,0.4446718,0.19201449,0.10514519,inf,inf,inf,inf,1,1,1,1,2,0,2,1,4,1,1,1
35510658,16344161,-33.9385866,18.8741493,-1.4644346,0.28491458,-4.7802095,0.067668386,-0.028586566,0.0,-1.0374104,-0.18267512,-1.7219666,-2.119252,0.109349184,-0.007055687,0.07540404,-0.7937893,-0.2835784,3.3240688,-3.0176523,-0.034529295,131.26224,4.512326,0.2975168,0.44530794,0.19293697,0.10534186,inf,inf,inf,inf,1,1,1,1,2,0,2,1,4,1,1,1
35520664,16344161,-33.9385866,18.8741493,-1.4757035,0.28232,-4.8010626,0.067668386,-0.028586566,0.0,-1.0454731,-0.18739484,-1.6892067,-2.0861406,0.109349184,-0.007055687,0.07540404,-0.684913,-0.381059,3.0479245,-3.0169458,-0.034529295,131.26224,4.533179,0.29856727,0.44594607,0.1938158,0.105532475,inf,inf,inf,inf,1,1,1,1,2,0,2,1,4,1,1,1
35530665,16344161,-33.9385866,18.8741493,-1.487049,0.27972975,-4.821468,0.067668386,-0.028586566,0.0,-1.0601885,-0.1850544,-1.6625669,-2.0590048,0.109349184,-0.007055687,0.07540404,-1.698686,0.44591513,2.6855946,-3.0168915,-0.034529295,131.26224,4.553584,0.29962867,0.44658622,0.1947061,0.105725676,inf,inf,inf,inf,1,1,1,1,2,0,2,1,4,1,1,1
35540670,16344161,-33.9385866,18.8741493,-1.4985238,0.27716696,-4.841426,0.067668386,-0.028586566,0.0,-1.0702649,-0.18868954,-1.6256887,-2.0214918,0.109349184,-0.007055687,0.07540404,-0.28988108,-0.8082029,4.0293307,-3.016212,-0.034529295,131.26224,4.573542,0.30070093,0.44722837,0.19565754,0.10592341,inf,inf,inf,inf,1,1,1,1,2,0,2,1,4,1,1,1
35550672,16344161,-33.9385866,18.8741493,-1.5099461,0.2745393,-4.860836,0.067668386,-0.028586566,0.0,-1.0565208,-0.19685292,-1.5830272,-1.9780638,0.109349184,-0.007055687,0.07540404,1.7604177,-0.27427098,4.307955,-3.015757,-0.034529295,131.26224,4.5929523,0.30178437,0.44787255,0.19656156,0.10611959,inf,inf,inf,inf,1,1,1,1,2,0,2,1,4,1,1,1
35560675,16344161,-33.9385866,18.8741493,-1.5212353,0.2719663,-4.8797073,0.067668386,-0.028586566,0.0,-1.0525755,-0.1826988,-1.5451909,-1.9393352,0.109349184,-0.007055687,0.07540404,-0.1649148,1.5939785,3.6538193,-3.0154657,-0.034529295,131.26224,4.6118236,0.3028789,0.44851875,0.19749331,0.106317095,inf,inf,inf,inf,1,1,1,1,2,0,2,1,4,1,1,1
35570680,16344161,-33.9385866,18.8741493,-1.5325726,0.26942864,-4.898096,0.067668386,-0.028586566,0.0,-1.0681812,-0.1988063,-1.5113441,-1.9044752,0.109349184,-0.007055687,0.07540404,-1.7731899,-2.5408704,3.3268652,-3.0147078,-0.034529295,131.26224,4.6302123,0.30398443,0.44916698,0.19836701,0.10650706,inf,inf,inf,inf,1,1,1,1,2,0,2,1,4,1,1,1
35580682,16344161,-33.9385866,18.8741493,-1.5438888,0.26605204,-4.9152126,0.067668386,-0.028586566,0.0,-1.0757632,-0.20891884,-1.4767187,-1.8678657,0.109349184,-0.007055687,0.07540404,-0.2415188,0.35540518,3.4509747,-3.0147977,-0.034529295,131.26224,4.647329,0.28425896,0.44176877,0.17843741,0.10352979,inf,inf,inf,inf,1,1,1,1,2,0,2,1,4,1,1,1
35590686,16344161,-33.9385866,18.8741493,-1.5552068,0.26279306,-4.9318857,0.067668386,-0.028586566,0.0,-1.0750442,-0.19036287,-1.4415758,-1.8306664,0.109349184,-0.007055687,0.07540404,-0.007332461,1.6295371,3.4724379,-3.0143447,-0.034529295,131.26224,4.664002,0.285173,0.44238764,0.1792715,0.103720635,inf,inf,inf,inf,1,1,1,1,2,0,2,1,4,1,1,1
35600689,16344161,-33.9385866,18.8741493,-1.5665286,0.25958315,-4.948109,0.067668386,-0.028586566,0.0,-1.081344,-0.20763572,-1.404969,-1.7919356,0.109349184,-0.007055687,0.07540404,-0.89666826,-2.3057168,3.7436671,-3.0137072,-0.034529295,131.26224,4.6802254,0.28609687,0.44300845,0.18010943,0.10391536,inf,inf,inf,inf,1,1,1,1,2,0,2,1,4,1,1,1
35610700,16344161,-33.9385866,18.8741493,-1.5779678,0.25628474,-4.963883,0.067668386,-0.028586566,0.0,-1.0995147,-0.20590389,-1.3679178,-1.7526964,0.109349184,-0.007055687,0.07540404,-1.8440592,1.2363192,3.6734395,-3.0137382,-0.034529295,131.26224,4.695999,0.28703058,0.44363123,0.18094292,0.104106374,inf,inf,inf,inf,1,1,1,1,2,0,2,1,4,1,1,1
35620696,16344161,-33.9385866,18.8741493,-1.589521,0.2531083,-4.9791756,0.067668386,-0.028586566,0.0,-1.1082913,-0.20009664,-1.3298128,-1.7123433,0.109349184,-0.007055687,0.07540404,-0.35664648,-0.28355247,3.835593,-3.0130367,-0.034529295,131.26224,4.711292,0.28797427,0.444256,0.18174179,0.10429505,inf,inf,inf,inf,1,1,1,1,2,0,2,1,4,1,1,1
35630699,16344161,-33.9385866,18.8741493,-1.6010565,0.24988693,-4.9939933,0.067668386,-0.028586566,0.0,-1.0991637,-0.21479079,-1.2866249,-1.6668506,0.109349184,-0.007055687,0.07540404,1.171281,-1.1731621,4.554463,-3.0128736,-0.034529295,131.26224,4.7261095,0.28892785,0.44488275,0.18260835,0.10449125,inf,inf,inf,inf,1,1,1,1,2,0,2,1,4,1,1,1
35640703,16344161,-33.9385866,18.8741493,-1.612463,0.2466695,-5.008263,0.067668386,-0.028586566,0.0,-1.0878708,-0.2050008,-1.2376682,-1.6155349,0.109349184,-0.007055687,0.07540404,1.0205598,1.3164737,4.812176,-3.012628,-0.034529295,131.26224,4.7403793,0.2898915,0.44551146,0.18347497,0.1046883,inf,inf,inf,inf,1,1,1,1,2,0,2,1,4,1,1,1
35650707,16344161,-33.9385866,18.8741493,-1.6237787,0.24350424,-5.0219874,0.067668386,-0.028586566,0.0,-1.0841283,-0.21588539,-1.1935661,-1.5690253,0.109349184,-0.007055687,0.07540404,0.3350468,-1.8515061,4.250207,-3.0119724,-0.034529295,131.26224,4.7541037,0.29086533,0.44614217,0.18430279,0.1048813,inf,inf,inf,inf,1,1,1,1,2,0,2,1,4,1,1,1
35660710,16344161,-33.9385866,18.8741493,-1.6350821,0.24024902,-5.0352197,0.067668386,-0.028586566,0.0,-1.091093,-0.21894026,-1.1545571,-1.5275618,0.109349184,-0.007055687,0.07540404,-1.131307,0.8364052,3.7170331,-3.011753,-0.034529295,131.26224,4.767336,0.29184923,0.44677487,0.18513432,0.10507304,inf,inf,inf,inf,1,1,1,1,2,0,2,1,4,1,1,1
35670759,16344161,-33.9385866,18.8741493,-1.6465275,0.23708044,-5.0487356,0.067668386,-0.028586566,0.0,-1.1022747,-0.2109009,-1.1210034,-1.4921818,0.109349184,-0.007055687,0.07540404,-0.85813755,0.19734986,3.2195504,-3.011087,-0.034529295,131.26224,4.780852,0.29284337,0.4437982,0.1859657,0.104956776,inf,inf,inf,inf,1,1,1,1,2,0,2,1,4,1,1,1
