timestamp,ref_timestamp,ref_lat,ref_lon,x,y,z,delta_xy[0],delta_xy[1],delta_z,vx,vy,vz,z_deriv,delta_vxy[0],delta_vxy[1],delta_vz,ax,ay,az,heading,delta_heading,ref_alt,dist_bottom,eph,epv,evh,evv,vxy_max,vz_max,hagl_min,hagl_max,xy_valid,z_valid,v_xy_valid,v_z_valid,xy_reset_counter,z_reset_counter,vxy_reset_counter,vz_reset_counter,heading_reset_counter,xy_global,z_global,dist_bottom_valid
423395594,15154129,-33.9385715,18.8741563,-2.0722082,0.3323277,0.33323553,-0.23954648,0.1367903,0.0,0.00922022,-0.03166096,0.05392698,0.03628018,-1.5294534,0.020032808,-0.32580173,-0.16230395,-0.28959453,0.14175016,-3.1347244,-0.25554916,131.77486,0.1,0.30543363,0.43634856,0.14005128,0.0914244,inf,inf,inf,inf,1,1,1,1,2,0,2,1,5,1,1,1
423405580,15154129,-33.9385715,18.8741563,-2.0724115,0.33180553,0.33354062,-0.23954648,0.1367903,0.0,0.0068123266,-0.03234628,0.05497579,0.037286818,-1.5294534,0.020032808,-0.32580173,-0.23997863,-0.049106907,0.099831596,-3.1326344,-0.25554916,131.77486,0.1,0.3063449,0.4369155,0.14051777,0.09154811,inf,inf,inf,inf,1,1,1,1,2,0,2,1,5,1,1,1
423415578,15154129,-33.9385715,18.8741563,-2.0725412,0.33136156,0.33384985,-0.23954648,0.1367903,0.0,0.004042534,-0.035832018,0.05460234,0.03687033,-1.5294534,0.020032808,-0.32580173,-0.33196667,-0.42397565,-0.0926474,-3.129775,-0.25554916,131.77486,0.1,0.29022908,0.43411008,0.13194524,0.08982634,inf,inf,inf,inf,1,1,1,1,2,0,2,1,5,1,1,1
423425583,15154129,-33.9385715,18.8741563,-2.0726976,0.33089218,0.33415473,-0.23954648,0.1367903,0.0,0.00032998458,-0.037173897,0.052366085,0.034600202,-1.5294534,0.020032808,-0.32580173,-0.34750932,0.0285608,-0.275061,-3.1262047,-0.25554916,131.77486,0.1,0.29104805,0.43466145,0.13239355,0.08995028,inf,inf,inf,inf,1,1,1,1,2,0,2,1,5,1,1,1
423435587,15154129,-33.9385715,18.8741563,-2.0728803,0.3304301,0.3344331,-0.23954648,0.1367903,0.0,-0.0029716538,-0.03622043,0.04783124,0.030038672,-1.5294534,0.020032808,-0.32580173,-0.35382628,0.08638158,-0.5327249,-3.1221204,-0.25554916,131.77486,0.1,0.291872,0.43521407,0.1328423,0.09007407,inf,inf,inf,inf,1,1,1,1,2,0,2,1,5,1,1,1
423445591,15154129,-33.9385715,18.8741563,-2.0730863,0.32998067,0.33466128,-0.23954648,0.1367903,0.0,-0.0055937394,-0.03544436,0.040889177,0.023078395,-1.5294534,0.020032808,-0.32580173,-0.24302219,0.09669527,-0.74247545,-3.117919,-0.25554916,131.77486,0.1,0.29270098,0.43576825,0.13329138,0.09019799,inf,inf,inf,inf,1,1,1,1,2,0,2,1,5,1,1,1
423455596,15154129,-33.9385715,18.8741563,-2.0733109,0.32956028,0.33482158,-0.23954648,0.1367903,0.0,-0.008112801,-0.03140785,0.03319201,0.0153699145,-1.5294534,0.020032808,-0.32580173,-0.24387348,0.40718457,-0.7667256,-3.1137412,-0.25554916,131.77486,0.1,0.29353496,0.4363237,0.13374062,0.0903217,inf,inf,inf,inf,1,1,1,1,2,0,2,1,5,1,1,1
423465600,15154129,-33.9385715,18.8741563,-2.0735457,0.32918975,0.33491737,-0.23954648,0.1367903,0.0,-0.008777018,-0.026231075,0.024879392,0.0070614745,-1.5294534,0.020032808,-0.32580173,-0.014086123,0.55138254,-0.84616315,-3.109958,-0.25554916,131.77486,0.1,0.29437396,0.43351653,0.13419111,0.09018121,inf,inf,inf,inf,1,1,1,1,2,0,2,1,5,1,1,1
423475604,15154129,-33.9385715,18.8741563,-2.0737727,0.32889262,0.33493698,-0.23954648,0.1367903,0.0,-0.007966343,-0.017508259,0.01689952,-0.000907643,-1.5294534,0.020032808,-0.32580173,0.1245674,0.92304015,-0.7644801,-3.1069977,-0.25554916,131.77486,0.1,0.29521802,0.43407053,0.13463992,0.09030492,inf,inf,inf,inf,1,1,1,1,2,0,2,1,5,1,1,1
423485610,15154129,-33.9385715,18.8741563,-2.0739827,0.32868308,0.33488944,-0.23954648,0.1367903,0.0,-0.006903375,-0.0103301825,0.01011384,-0.007675711,-1.5294534,0.020032808,-0.32580173,0.09661522,0.61721724,-0.63690716,-3.1047535,-0.25554916,131.77486,0.1,0.29606712,0.43462607,0.13508813,0.0904286,inf,inf,inf,inf,1,1,1,1,2,0,2,1,5,1,1,1
423495613,15154129,-33.9385715,18.8741563,-2.074173,0.32854784,0.33478415,-0.23954648,0.1367903,0.0,-0.004892095,-0.0025281813,0.0038876096,-0.013877771,-1.5294534,0.020032808,-0.32580173,0.24617784,0.86985666,-0.61218876,-3.1033068,-0.25554916,131.77486,0.1,0.29692128,0.43518305,0.13553722,0.090552084,inf,inf,inf,inf,1,1,1,1,2,0,2,1,5,1,1,1
423505618,15154129,-33.9385715,18.8741563,-2.0743303,0.32850212,0.3346255,-0.23954648,0.1367903,0.0,-0.0016418687,0.0053760316,-0.0017441331,-0.019478684,-1.5294534,0.020032808,-0.32580173,0.34707287,0.5920529,-0.51662934,-3.1025562,-0.25554916,131.77486,0.1,0.29778048,0.4357413,0.1359876,0.090675786,inf,inf,inf,inf,1,1,1,1,2,0,2,1,5,1,1,1
423515622,15154129,-33.9385715,18.8741563,-2.0744503,0.32851154,0.3344224,-0.23954648,0.1367903,0.0,0.0015292426,0.009262051,-0.00637111,-0.024068885,-1.5294534,0.020032808,-0.32580173,0.35783616,0.50848675,-0.44046777,-3.10206,-0.25554916,131.77486,0.1,0.29864478,0.4363011,0.13643819,0.09079972,inf,inf,inf,inf,1,1,1,1,2,0,2,1,5,1,1,1
423525626,15154129,-33.9385715,18.8741563,-2.0745273,0.3285862,0.3341791,-0.23954648,0.1367903,0.0,0.005859856,0.017041935,-0.010711072,-0.028366856,-1.5294534,0.020032808,-0.32580173,0.48221844,0.7750487,-0.37534776,-3.1019316,-0.25554916,131.77486,0.1,0.29951414,0.43686223,0.13688806,0.09092291,inf,inf,inf,inf,1,1,1,1,2,0,2,1,5,1,1,1
423535631,15154129,-33.9385715,18.8741563,-2.074558,0.3287103,0.3339039,-0.23954648,0.1367903,0.0,0.009523251,0.018103667,-0.013677251,-0.031285595,-1.5294534,0.020032808,-0.32580173,0.38011435,0.041093737,-0.19172905,-3.1019225,-0.25554916,131.77486,0.1,0.30038863,0.4374249,0.13733967,0.09104638,inf,inf,inf,inf,1,1,1,1,2,0,2,1,5,1,1,1
423545635,15154129,-33.9385715,18.8741563,-2.074539,0.32887426,0.3336085,-0.23954648,0.1367903,0.0,0.014538131,0.025276726,-0.0164421,-0.03399776,-1.5294534,0.020032808,-0.32580173,0.46419796,0.85325,-0.2848911,-3.1022096,-0.25554916,131.77486,0.1,0.3012682,0.43798885,0.13779777,0.0911695,inf,inf,inf,inf,1,1,1,1,2,0,2,1,5,1,1,1
423555640,15154129,-33.9385715,18.8741563,-2.07448,0.3290786,0.33332604,-0.23954648,0.1367903,0.0,0.016552797,0.023565497,-0.018384518,-0.035850275,-1.5294534,0.020032808,-0.32580173,0.1721014,-0.4210584,-0.16323453,-3.1024158,-0.25554916,131.77486,0.1,0.30215293,0.43515167,0.13825876,0.0910207,inf,inf,inf,inf,1,1,1,1,2,0,2,1,5,1,1,1
423565645,15154129,-33.9385715,18.8741563,-2.0743895,0.32928744,0.33302435,-0.23954648,0.1367903,0.0,0.019817373,0.027681934,-0.021090403,-0.03846297,-1.5294534,0.020032808,-0.32580173,0.28219438,0.6018607,-0.23222953,-3.1027124,-0.25554916,131.77486,0.1,0.30304283,0.4357141,0.13872403,0.09114395,inf,inf,inf,inf,1,1,1,1,2,0,2,1,5,1,1,1
423575649,15154129,-33.9385715,18.8741563,-2.074285,0.32951307,0.3327006,-0.23954648,0.1367903,0.0,0.018815113,0.02462143,-0.023645945,-0.040922236,-1.5294534,0.020032808,-0.32580173,-0.057898376,-0.44283772,-0.22472534,-3.1027703,-0.25554916,131.77486,0.1,0.30393788,0.43627807,0.13919446,0.09126701,inf,inf,inf,inf,1,1,1,1,2,0,2,1,5,1,1,1
423585653,15154129,-33.9385715,18.8741563,-2.0741618,0.32973337,0.33235595,-0.23954648,0.1367903,0.0,0.021898936,0.02634484,-0.025753787,-0.04293088,-1.5294534,0.020032808,-0.32580173,0.19746342,0.10930115,-0.118602544,-3.1030211,-0.25554916,131.77486,0.1,0.30483818,0.4368435,0.13967177,0.091390274,inf,inf,inf,inf,1,1,1,1,2,0,2,1,5,1,1,1
423595705,15154129,-33.9385715,18.8741563,-2.0740352,0.3299439,0.33199823,-0.23954648,0.1367903,0.0,0.02018766,0.023908123,-0.027736422,-0.044810772,-1.5294534,0.020032808,-0.32580173,0.074332796,0.115542315,-0.26878953,-3.1031935,-0.25554916,131.77486,0.10056317,0.30574375,0.43741024,0.14015773,0.09151313,inf,inf,inf,inf,1,1,1,1,2,0,2,1,5,1,1,1
423605662,15154129,-33.9385715,18.8741563,-2.0739005,0.3301504,0.33161572,-0.23954648,0.1367903,0.0,0.020041682,0.020875407,-0.031137018,-0.048106067,-1.5294534,0.020032808,-0.32580173,-0.37576562,-0.8505806,-0.24588965,-3.1033828,-0.25554916,131.77486,0.10144541,0.30665463,0.43797857,0.14065374,0.09163596,inf,inf,inf,inf,1,1,1,1,2,0,2,1,5,1,1,1
423615666,15154129,-33.9385715,18.8741563,-2.0741546,0.33024746,0.33097234,-0.23954648,0.1367903,0.0,0.019409835,0.021072399,-0.033308767,-0.05041586,-1.5294534,0.020032808,-0.32580173,0.25911126,0.41397157,-0.2501458,-3.1035209,-0.25554916,131.77486,0.10208878,0.29055512,0.4351501,0.1321065,0.089908116,inf,inf,inf,inf,1,1,1,1,2,0,2,1,5,1,1,1
423625670,15154129,-33.9385715,18.8741563,-2.0744004,0.33033198,0.33031633,-0.23954648,0.1367903,0.0,0.016384749,0.015570482,-0.035481047,-0.052713152,-1.5294534,0.020032808,-0.32580173,-0.42012957,-0.47981688,-0.16056977,-3.1032345,-0.25554916,131.77486,0.10274479,0.29137385,0.43570274,0.13260084,0.09003103,inf,inf,inf,inf,1,1,1,1,2,0,2,1,5,1,1,1
423635675,15154129,-33.9385715,18.8741563,-2.0746493,0.33039942,0.32965106,-0.23954648,0.1367903,0.0,0.01580024,0.013333532,-0.037310775,-0.054655433,-1.5294534,0.020032808,-0.32580173,-0.15659279,-0.79113656,-0.123225264,-3.1028266,-0.25554916,131.77486,0.103410065,0.2921977,0.4362567,0.13309886,0.09015382,inf,inf,inf,inf,1,1,1,1,2,0,2,1,5,1,1,1
423645679,15154129,-33.9385715,18.8741563,-2.0748875,0.3304536,0.32892352,-0.23954648,0.1367903,0.0,0.017154282,0.016759697,-0.03678023,-0.054294407,-1.5294534,0.020032808,-0.32580173,0.33954167,0.7599443,0.034924936,-3.1022496,-0.25554916,131.77486,0.1041376,0.29302675,0.43344954,0.13359734,0.09001331,inf,inf,inf,inf,1,1,1,1,2,0,2,1,5,1,1,1
423655684,15154129,-33.9385715,18.8741563,-2.075107,0.33051893,0.32821384,-0.23954648,0.1367903,0.0,0.016954802,0.015031675,-0.03634318,-0.054011233,-1.5294534,0.020032808,-0.32580173,0.24255146,0.34068945,0.0495001,-3.1015575,-0.25554916,131.77486,0.10484728,0.29386097,0.43400204,0.13409297,0.09013619,inf,inf,inf,inf,1,1,1,1,2,0,2,1,5,1,1,1
423665688,15154129,-33.9385715,18.8741563,-2.075295,0.33060938,0.32751337,-0.23954648,0.1367903,0.0,0.017700762,0.015207337,-0.03714486,-0.054952815,-1.5294534,0.020032808,-0.32580173,-0.2808552,-0.5840343,-0.029365815,-3.1010144,-0.25554916,131.77486,0.105547756,0.29470038,0.43455607,0.13458799,0.09025923,inf,inf,inf,inf,1,1,1,1,2,0,2,1,5,1,1,1
423675693,15154129,-33.9385715,18.8741563,-2.075463,0.33073127,0.3268079,-0.23954648,0.1367903,0.0,0.01967008,0.020421455,-0.040088095,-0.058022533,-1.5294534,0.020032808,-0.32580173,0.11456215,-0.080307715,-0.32233867,-3.100719,-0.25554916,131.77486,0.10625324,0.295545,0.43511152,0.13508235,0.09038234,inf,inf,inf,inf,1,1,1,1,2,0,2,1,5,1,1,1
423685697,15154129,-33.9385715,18.8741563,-2.075606,0.3308777,0.3260902,-0.23954648,0.1367903,0.0,0.022173215,0.02581669,-0.041739557,-0.05978766,-1.5294534,0.020032808,-0.32580173,0.5779316,1.2619715,-0.17370437,-3.1005557,-0.25554916,131.77486,0.106970936,0.29639482,0.43566823,0.13557404,0.09050556,inf,inf,inf,inf,1,1,1,1,2,0,2,1,5,1,1,1
423695703,15154129,-33.9385715,18.8741563,-2.075714,0.33106408,0.32537386,-0.23954648,0.1367903,0.0,0.024416741,0.028414655,-0.0422457,-0.06039509,-1.5294534,0.020032808,-0.32580173,0.59484386,1.1529568,-0.10728748,-3.1005375,-0.25554916,131.77486,0.107687265,0.29724985,0.43622655,0.13606648,0.09062871,inf,inf,inf,inf,1,1,1,1,2,0,2,1,5,1,1,1
423705705,15154129,-33.9385715,18.8741563,-2.0757804,0.33129427,0.32464615,-0.23954648,0.1367903,0.0,0.024854489,0.028329391,-0.045754906,-0.0639934,-1.5294534,0.020032808,-0.32580173,-0.23330285,-0.20928194,-0.31257233,-3.1007862,-0.25554916,131.77486,0.10841498,0.29811013,0.43678612,0.13655455,0.09075213,inf,inf,inf,inf,1,1,1,1,2,0,2,1,5,1,1,1
423715716,15154129,-33.9385715,18.8741563,-2.0758235,0.3315639,0.32390428,-0.23954648,0.1367903,0.0,0.026666606,0.03128327,-0.046302464,-0.06461869,-1.5294534,0.020032808,-0.32580173,-0.10523015,-0.73686755,0.12686557,-3.1013935,-0.25554916,131.77486,0.10915685,0.29897565,0.43734723,0.1370439,0.09087531,inf,inf,inf,inf,1,1,1,1,2,0,2,1,5,1,1,1
423725714,15154129,-33.9385715,18.8741563,-2.0758317,0.33188167,0.32286125,-0.23954648,0.1367903,0.0,0.029379323,0.037805915,-0.049381994,-0.06806832,-1.5294534,0.020032808,-0.32580173,-0.10004044,-0.2889213,-0.40732148,-3.1022553,-0.25554916,131.77486,0.11019987,0.29984638,0.4345218,0.13753045,0.09072957,inf,inf,inf,inf,1,1,1,1,2,0,2,1,5,1,1,1
423735719,15154129,-33.9385715,18.8741563,-2.0758114,0.33225128,0.32181355,-0.23954648,0.1367903,0.0,0.03282063,0.045504417,-0.05067698,-0.06970953,-1.5294534,0.020032808,-0.32580173,0.51316833,0.7556911,-0.12965825,-3.1034176,-0.25554916,131.77486,0.11124757,0.30072236,0.43508142,0.13802184,0.09085293,inf,inf,inf,inf,1,1,1,1,2,0,2,1,5,1,1,1
423745723,15154129,-33.9385715,18.8741563,-2.0757558,0.33267692,0.32077068,-0.23954648,0.1367903,0.0,0.034875534,0.052397512,-0.052772064,-0.07212853,-1.5294534,0.020032808,-0.32580173,0.4812401,1.4790087,-0.3315502,-3.1048844,-0.25554916,131.77486,0.11229044,0.30160365,0.43564233,0.13851292,0.09097636,inf,inf,inf,inf,1,1,1,1,2,0,2,1,5,1,1,1
423755727,15154129,-33.9385715,18.8741563,-2.075677,0.33314717,0.31972918,-0.23954648,0.1367903,0.0,0.03603092,0.05651247,-0.0545679,-0.07422614,-1.5294534,0.020032808,-0.32580173,0.4914507,1.739225,-0.3873886,-3.1065483,-0.25554916,131.77486,0.113331944,0.3024902,0.43620482,0.1390043,0.09109981,inf,inf,inf,inf,1,1,1,1,2,0,2,1,5,1,1,1
423765734,15154129,-33.9385715,18.8741563,-2.0755847,0.33365226,0.31868327,-0.23954648,0.1367903,0.0,0.035731304,0.05866885,-0.05659475,-0.07653346,-1.5294534,0.020032808,-0.32580173,0.36827636,1.5433689,-0.29231796,-3.1083002,-0.25554916,131.77486,0.114377856,0.30338207,0.4367687,0.1394976,0.091223255,inf,inf,inf,inf,1,1,1,1,2,0,2,1,5,1,1,1
423775736,15154129,-33.9385715,18.8741563,-2.0754874,0.33418244,0.3176283,-0.23954648,0.1367903,0.0,0.03482053,0.058925655,-0.058386225,-0.078586146,-1.5294534,0.020032808,-0.32580173,0.22457804,0.9163449,-0.0074588535,-3.1099734,-0.25554916,131.77486,0.11543283,0.30427927,0.43733394,0.13999392,0.09134668,inf,inf,inf,inf,1,1,1,1,2,0,2,1,5,1,1,1
423785741,15154129,-33.9385715,18.8741563,-2.0753884,0.33472797,0.316575,-0.23954648,0.1367903,0.0,0.032745115,0.05796135,-0.05933852,-0.07977992,-1.5294534,0.020032808,-0.32580173,-0.18512715,0.1666407,0.12197435,-3.1114378,-0.25554916,131.77486,0.11648613,0.3051818,0.43790072,0.14048867,0.09146995,inf,inf,inf,inf,1,1,1,1,2,0,2,1,5,1,1,1
423795745,15154129,-33.9385715,18.8741563,-2.0752997,0.3352918,0.31553075,-0.23954648,0.1367903,0.0,0.030265395,0.058537584,-0.05964257,-0.080307335,-1.5294534,0.020032808,-0.32580173,-0.3831287,-0.38635057,0.19184747,-3.1126573,-0.25554916,131.77486,0.117530376,0.30608973,0.43846878,0.14098397,0.091593325,inf,inf,inf,inf,1,1,1,1,2,0,2,1,5,1,1,1
423805750,15154129,-33.9385715,18.8741563,-2.0752268,0.3358783,0.3145041,-0.23954648,0.1367903,0.0,0.02738104,0.05952889,-0.058732715,-0.07960257,-1.5294534,0.020032808,-0.32580173,-0.54619735,-0.8644677,0.35757628,-3.1136432,-0.25554916,131.77486,0.118557036,0.307003,0.43903846,0.14147967,0.091716714,inf,inf,inf,inf,1,1,1,1,2,0,2,1,5,1,1,1
423815754,15154129,-33.9385715,18.8741563,-2.0749567,0.3364478,0.31310397,-0.23954648,0.1367903,0.0,0.023956351,0.06130469,-0.057271898,-0.07873289,-1.5294534,0.020032808,-0.32580173,-0.6842325,-1.1162332,0.5090359,-3.114435,-0.25554916,131.77486,0.11995715,0.29086554,0.43283883,0.13280106,0.08972364,inf,inf,inf,inf,1,1,1,1,2,0,2,1,5,1,1,1
423825758,15154129,-33.9385715,18.8741563,-2.0747168,0.33704436,0.31175154,-0.23954648,0.1367903,0.0,0.020712283,0.063409224,-0.05472944,-0.076746896,-1.5294534,0.020032808,-0.32580173,-0.68141216,-1.1979529,0.6456673,-3.1150162,-0.25554916,131.77486,0.12130958,0.29168552,0.43338853,0.13327512,0.08984727,inf,inf,inf,inf,1,1,1,1,2,0,2,1,5,1,1,1
423835765,15154129,-33.9385715,18.8741563,-2.0745103,0.33766133,0.3104559,-0.23954648,0.1367903,0.0,0.017062766,0.06512984,-0.052263036,-0.07480424,-1.5294534,0.020032808,-0.32580173,-0.69589394,-1.1383253,0.43337497,-3.1153996,-0.25554916,131.77486,0.122605234,0.29251057,0.43393952,0.133755,0.08997067,inf,inf,inf,inf,1,1,1,1,2,0,2,1,5,1,1,1
423845767,15154129,-33.9385715,18.8741563,-2.0743432,0.3382884,0.30922008,-0.23954648,0.1367903,0.0,0.0126318,0.06672254,-0.048893373,-0.07192616,-1.5294534,0.020032808,-0.32580173,-0.7281095,-0.77486116,0.36597416,-3.1155243,-0.25554916,131.77486,0.12384105,0.29334074,0.43449208,0.13424432,0.090093926,inf,inf,inf,inf,1,1,1,1,2,0,2,1,5,1,1,1
423855771,15154129,-33.9385715,18.8741563,-2.0742185,0.33891964,0.3080494,-0.23954648,0.1367903,0.0,0.008344482,0.068440214,-0.04476729,-0.068260714,-1.5294534,0.020032808,-0.32580173,-0.65615684,-0.08217249,0.35305405,-3.1153176,-0.25554916,131.77486,0.12501171,0.2941761,0.43504602,0.13473028,0.09021716,inf,inf,inf,inf,1,1,1,1,2,0,2,1,5,1,1,1
423865817,15154129,-33.9385715,18.8741563,-2.0741448,0.33955237,0.3069403,-0.23954648,0.1367903,0.0,0.002763617,0.06918093,-0.041253656,-0.06517854,-1.5294534,0.020032808,-0.32580173,-0.6079648,0.5404411,0.24589244,-3.1147559,-0.25554916,131.77486,0.12612084,0.2950166,0.43560126,0.13521309,0.09034039,inf,inf,inf,inf,1,1,1,1,2,0,2,1,5,1,1,1
423875798,15154129,-33.9385715,18.8741563,-2.0741348,0.3401746,0.30589134,-0.23954648,0.1367903,0.0,-0.0034681684,0.06859269,-0.03830473,-0.062632404,-1.5294534,0.020032808,-0.32580173,-0.42214048,0.81712073,0.14010163,-3.1138606,-0.25554916,131.77486,0.12716979,0.2958623,0.43615806,0.1357075,0.090463884,inf,inf,inf,inf,1,1,1,1,2,0,2,1,5,1,1,1
423885782,15154129,-33.9385715,18.8741563,-2.0741918,0.34078407,0.30489755,-0.23954648,0.1367903,0.0,-0.010573335,0.067510515,-0.03568686,-0.06039028,-1.5294534,0.020032808,-0.32580173,-0.42674145,1.0380304,-0.08722985,-3.112675,-0.25554916,131.77486,0.12816358,0.2967132,0.4367161,0.13619307,0.09058703,inf,inf,inf,inf,1,1,1,1,2,0,2,1,5,1,1,1
423895789,15154129,-33.9385715,18.8741563,-2.0743148,0.34138197,0.30371243,-0.23954648,0.1367903,0.0,-0.017515598,0.06591995,-0.032585405,-0.057883337,-1.5294534,0.020032808,-0.32580173,-0.51288444,1.0639755,-0.11168819,-3.1112761,-0.25554916,131.77486,0.1293487,0.2975693,0.43390247,0.13668889,0.09044363,inf,inf,inf,inf,1,1,1,1,2,0,2,1,5,1,1,1
423905795,15154129,-33.9385715,18.8741563,-2.0745003,0.34196353,0.30259275,-0.23954648,0.1367903,0.0,-0.023305697,0.06277611,-0.028321343,-0.05417703,-1.5294534,0.020032808,-0.32580173,-0.3778448,0.7301052,0.07500973,-3.1096978,-0.25554916,131.77486,0.13046837,0.29843068,0.43445906,0.1371799,0.090566605,inf,inf,inf,inf,1,1,1,1,2,0,2,1,5,1,1,1
423915801,15154129,-33.9385715,18.8741563,-2.0747452,0.34251723,0.30153364,-0.23954648,0.1367903,0.0,-0.029291546,0.05797192,-0.025327167,-0.051705617,-1.5294534,0.020032808,-0.32580173,-0.28060308,0.23488651,0.13102408,-3.1078968,-0.25554916,131.77486,0.13152748,0.29929733,0.4350172,0.13767487,0.0906897,inf,inf,inf,inf,1,1,1,1,2,0,2,1,5,1,1,1
423925814,15154129,-33.9385715,18.8741563,-2.075047,0.3430331,0.3005259,-0.23954648,0.1367903,0.0,-0.03496622,0.051994454,-0.022420172,-0.049288463,-1.5294534,0.020032808,-0.32580173,-0.2220604,-0.34627587,0.3196261,-3.1057642,-0.25554916,131.77486,0.13253522,0.30016926,0.43557665,0.13816954,0.09081274,inf,inf,inf,inf,1,1,1,1,2,0,2,1,5,1,1,1
423935806,15154129,-33.9385715,18.8741563,-2.075399,0.34350842,0.29956996,-0.23954648,0.1367903,0.0,-0.041029233,0.04663669,-0.020127438,-0.047453124,-1.5294534,0.020032808,-0.32580173,-0.4953215,-0.82078403,0.32304907,-3.1032946,-0.25554916,131.77486,0.13349116,0.3010465,0.43613765,0.13866603,0.090935946,inf,inf,inf,inf,1,1,1,1,2,0,2,1,5,1,1,1
423945810,15154129,-33.9385715,18.8741563,-2.0757995,0.3439529,0.29866394,-0.23954648,0.1367903,0.0,-0.046083096,0.042452455,-0.017229034,-0.044980902,-1.5294534,0.020032808,-0.32580173,-0.6060471,-1.2228063,0.46480876,-3.1005332,-0.25554916,131.77486,0.13439718,0.30192903,0.43670008,0.13916233,0.09105921,inf,inf,inf,inf,1,1,1,1,2,0,2,1,5,1,1,1
423955815,15154129,-33.9385715,18.8741563,-2.0762393,0.3443743,0.29781237,-0.23954648,0.1367903,0.0,-0.049757164,0.039903827,-0.013734858,-0.041882817,-1.5294534,0.020032808,-0.32580173,-0.5807937,-1.3810074,0.64367586,-3.0976484,-0.25554916,131.77486,0.13524875,0.3028169,0.4372638,0.1396566,0.09118228,inf,inf,inf,inf,1,1,1,1,2,0,2,1,5,1,1,1
423965819,15154129,-33.9385715,18.8741563,-2.0767117,0.34478086,0.297017,-0.23954648,0.1367903,0.0,-0.05220776,0.038933743,-0.010235241,-0.038750432,-1.5294534,0.020032808,-0.32580173,-0.33450845,-1.2672246,0.7769224,-3.0948863,-0.25554916,131.77486,0.13604411,0.30371013,0.43782908,0.14014977,0.0913053,inf,inf,inf,inf,1,1,1,1,2,0,2,1,5,1,1,1
423975824,15154129,-33.9385715,18.8741563,-2.0772007,0.34517723,0.29627603,-0.23954648,0.1367903,0.0,-0.053562343,0.038787145,-0.0074225985,-0.036277927,-1.5294534,0.020032808,-0.32580173,-0.26629847,-0.9575212,0.71966445,-3.0923965,-0.25554916,131.77486,0.13678509,0.3046087,0.43839565,0.14063966,0.091428064,inf,inf,inf,inf,1,1,1,1,2,0,2,1,5,1,1,1
423985828,15154129,-33.9385715,18.8741563,-2.0776935,0.34556875,0.29504535,-0.23954648,0.1367903,0.0,-0.054172643,0.038837276,-0.005899853,-0.035613716,-1.5294534,0.020032808,-0.32580173,-0.3958131,-0.72832954,0.36540592,-3.090241,-0.25554916,131.77486,0.13801578,0.3055126,0.43555158,0.14112839,0.09127659,inf,inf,inf,inf,1,1,1,1,2,0,2,1,5,1,1,1
423995832,15154129,-33.9385715,18.8741563,-2.078185,0.34595177,0.29387075,-0.23954648,0.1367903,0.0,-0.05358665,0.038882416,-0.004812586,-0.03533569,-1.5294534,0.020032808,-0.32580173,-0.28812638,-0.3493667,0.22828811,-3.088551,-0.25554916,131.77486,0.13919038,0.3064219,0.4361166,0.14161424,0.09139925,inf,inf,inf,inf,1,1,1,1,2,0,2,1,5,1,1,1
424005837,15154129,-33.9385715,18.8741563,-2.0786726,0.34632775,0.2927468,-0.23954648,0.1367903,0.0,-0.052248124,0.039446186,-0.003940461,-0.03522489,-1.5294534,0.020032808,-0.32580173,0.030390281,0.12840496,0.15364528,-3.0873282,-0.25554916,131.77486,0.14031431,0.3073365,0.4366832,0.14210154,0.09152203,inf,inf,inf,inf,1,1,1,1,2,0,2,1,5,1,1,1
424015841,15154129,-33.9385715,18.8741563,-2.079115,0.34697017,0.2914111,-0.23954648,0.1367903,0.0,-0.050577212,0.04071797,-0.0037878167,-0.03605286,-1.5294534,0.020032808,-0.32580173,0.30244067,0.72227216,-0.019944321,-3.086563,-0.25554916,131.77486,0.14165002,0.29117334,0.43388313,0.13333361,0.089800894,inf,inf,inf,inf,1,1,1,1,2,0,2,1,5,1,1,1
424025845,15154129,-33.9385715,18.8741563,-2.0795424,0.34760964,0.2901293,-0.23954648,0.1367903,0.0,-0.049451325,0.041639548,-0.0029373372,-0.03612697,-1.5294534,0.020032808,-0.32580173,0.22825642,1.0222553,-0.103613496,-3.0862978,-0.25554916,131.77486,0.14293182,0.29199386,0.43443418,0.13380149,0.08992378,inf,inf,inf,inf,1,1,1,1,2,0,2,1,5,1,1,1
424035851,15154129,-33.9385715,18.8741563,-2.0799513,0.34824675,0.28890866,-0.23954648,0.1367903,0.0,-0.047402,0.04150091,-0.0007556032,-0.03481587,-1.5294534,0.020032808,-0.32580173,0.23874876,0.98613447,-0.074051015,-3.086557,-0.25554916,131.77486,0.14415246,0.29281944,0.43498662,0.13427398,0.09004664,inf,inf,inf,inf,1,1,1,1,2,0,2,1,5,1,1,1
424045855,15154129,-33.9385715,18.8741563,-2.080335,0.3488793,0.28775376,-0.23954648,0.1367903,0.0,-0.04470094,0.04082209,0.0013578588,-0.033521045,-1.5294534,0.020032808,-0.32580173,0.2638042,0.781047,-0.17140298,-3.0873272,-0.25554916,131.77486,0.14530736,0.29365015,0.43554035,0.13474712,0.09016938,inf,inf,inf,inf,1,1,1,1,2,0,2,1,5,1,1,1
424055859,15154129,-33.9385715,18.8741563,-2.0806994,0.3495004,0.2866568,-0.23954648,0.1367903,0.0,-0.042152654,0.03891453,0.003299099,-0.03234847,-1.5294534,0.020032808,-0.32580173,0.5640771,0.44822896,-0.08495949,-3.0885525,-0.25554916,131.77486,0.14640433,0.29448596,0.4360956,0.13522263,0.09029222,inf,inf,inf,inf,1,1,1,1,2,0,2,1,5,1,1,1
424065864,15154129,-33.9385715,18.8741563,-2.0810394,0.35010284,0.28561214,-0.23954648,0.1367903,0.0,-0.039608285,0.03664546,0.0045598033,-0.031808767,-1.5294534,0.020032808,-0.32580173,0.62212235,0.17918412,-0.07093864,-3.0901182,-0.25554916,131.77486,0.14744899,0.29532695,0.43665215,0.13569818,0.09041495,inf,inf,inf,inf,1,1,1,1,2,0,2,1,5,1,1,1
424075867,15154129,-33.9385715,18.8741563,-2.081355,0.3506842,0.2842639,-0.23954648,0.1367903,0.0,-0.038027756,0.03369409,0.0049183075,-0.03247456,-1.5294534,0.020032808,-0.32580173,0.40300834,-0.23554593,-0.051127706,-3.0919483,-0.25554916,131.77486,0.14879721,0.29617307,0.4338385,0.1361704,0.09027249,inf,inf,inf,inf,1,1,1,1,2,0,2,1,5,1,1,1
424085872,15154129,-33.9385715,18.8741563,-2.0816376,0.35124224,0.28296626,-0.23954648,0.1367903,0.0,-0.034776784,0.030378472,0.005608875,-0.032749023,-1.5294534,0.020032808,-0.32580173,0.22649004,-0.7495289,0.07936737,-3.0940752,-0.25554916,131.77486,0.15009487,0.29702437,0.43439355,0.13664809,0.09039561,inf,inf,inf,inf,1,1,1,1,2,0,2,1,5,1,1,1
424095877,15154129,-33.9385715,18.8741563,-2.08189,0.35177296,0.2817193,-0.23954648,0.1367903,0.0,-0.031960856,0.02728716,0.0063467,-0.032918412,-1.5294534,0.020032808,-0.32580173,0.22050422,-1.0899082,0.22392084,-3.0964549,-0.25554916,131.77486,0.15134183,0.29788086,0.43495017,0.13712732,0.090518944,inf,inf,inf,inf,1,1,1,1,2,0,2,1,5,1,1,1
424105881,15154129,-33.9385715,18.8741563,-2.0821137,0.3522689,0.28052378,-0.23954648,0.1367903,0.0,-0.028618066,0.023804137,0.007876938,-0.03224063,-1.5294534,0.020032808,-0.32580173,0.36562133,-1.246568,0.48685354,-3.0989783,-0.25554916,131.77486,0.15253735,0.29874256,0.4355081,0.13760929,0.09064208,inf,inf,inf,inf,1,1,1,1,2,0,2,1,5,1,1,1
424115885,15154129,-33.9385715,18.8741563,-2.082311,0.35271922,0.27938756,-0.23954648,0.1367903,0.0,-0.02673343,0.019338548,0.009817383,-0.031099057,-1.5294534,0.020032808,-0.32580173,0.20468046,-1.3165674,0.61073583,-3.1014144,-0.25554916,131.77486,0.15367356,0.2996095,0.43606758,0.13809067,0.090765305,inf,inf,inf,inf,1,1,1,1,2,0,2,1,5,1,1,1
424125889,15154129,-33.9385715,18.8741563,-2.0824847,0.35311067,0.27830932,-0.23954648,0.1367903,0.0,-0.025087768,0.013980639,0.010793555,-0.030870194,-1.5294534,0.020032808,-0.32580173,-0.05259195,-1.2338876,0.48185995,-3.1034408,-0.25554916,131.77486,0.15475181,0.3004817,0.43662846,0.13857111,0.09088848,inf,inf,inf,inf,1,1,1,1,2,0,2,1,5,1,1,1
424135914,15154129,-33.9385715,18.8741563,-2.0826328,0.35344094,0.27728307,-0.23954648,0.1367903,0.0,-0.02275202,0.009419668,0.011140703,-0.031221434,-1.5294534,0.020032808,-0.32580173,-0.23012997,-0.89040804,0.23645534,-3.1050098,-0.25554916,131.77486,0.15577805,0.30135918,0.43719065,0.1390526,0.09101146,inf,inf,inf,inf,1,1,1,1,2,0,2,1,5,1,1,1
424145898,15154129,-33.9385715,18.8741563,-2.082758,0.35371944,0.27629444,-0.23954648,0.1367903,0.0,-0.019961951,0.005734241,0.01050924,-0.032503527,-1.5294534,0.020032808,-0.32580173,-0.040882822,-0.59643954,0.15304518,-3.1062193,-0.25554916,131.77486,0.15676668,0.30224192,0.43775436,0.13953768,0.09113457,inf,inf,inf,inf,1,1,1,1,2,0,2,1,5,1,1,1
424155903,15154129,-33.9385715,18.8741563,-2.0828624,0.35395464,0.2750107,-0.23954648,0.1367903,0.0,-0.017354265,0.0034109496,0.009471608,-0.03447648,-1.5294534,0.020032808,-0.32580173,0.1748317,-0.09781488,0.018964343,-3.1073377,-0.25554916,131.77486,0.15805042,0.30312997,0.4349221,0.14002812,0.090986155,inf,inf,inf,inf,1,1,1,1,2,0,2,1,5,1,1,1
424165907,15154129,-33.9385715,18.8741563,-2.082947,0.35415548,0.27376762,-0.23954648,0.1367903,0.0,-0.015663747,0.0013574644,0.008212519,-0.0366121,-1.5294534,0.020032808,-0.32580173,0.14192499,0.26152378,-0.15995237,-3.108485,-0.25554916,131.77486,0.1592935,0.30402333,0.4354843,0.14052117,0.0911095,inf,inf,inf,inf,1,1,1,1,2,0,2,1,5,1,1,1
424175912,15154129,-33.9385715,18.8741563,-2.0830147,0.3543252,0.27256498,-0.23954648,0.1367903,0.0,-0.014381961,-0.0012080206,0.0072174915,-0.0384273,-1.5294534,0.020032808,-0.32580173,0.03112278,0.38703918,-0.3486644,-3.109617,-0.25554916,131.77486,0.16049615,0.30492207,0.43604782,0.14101607,0.091232695,inf,inf,inf,inf,1,1,1,1,2,0,2,1,5,1,1,1
424185916,15154129,-33.9385715,18.8741563,-2.0830708,0.35446018,0.27140483,-0.23954648,0.1367903,0.0,-0.013310055,-0.004922451,0.007357415,-0.03905311,-1.5294534,0.020032808,-0.32580173,0.030123854,0.28915048,-0.31225732,-3.1105933,-0.25554916,131.77486,0.16165629,0.30582622,0.43661287,0.14151435,0.091356,inf,inf,inf,inf,1,1,1,1,2,0,2,1,5,1,1,1
424195920,15154129,-33.9385715,18.8741563,-2.0831196,0.35455945,0.27029446,-0.23954648,0.1367903,0.0,-0.011949632,-0.008534109,0.007889865,-0.03923435,-1.5294534,0.020032808,-0.32580173,0.2841325,0.1551622,-0.41609624,-3.1112983,-0.25554916,131.77486,0.16276667,0.30673575,0.43717927,0.14201114,0.09147916,inf,inf,inf,inf,1,1,1,1,2,0,2,1,5,1,1,1
424205928,15154129,-33.9385715,18.8741563,-2.083164,0.35462436,0.2692257,-0.23954648,0.1367903,0.0,-0.011548363,-0.01180465,0.0080595715,-0.03972795,-1.5294534,0.020032808,-0.32580173,0.36204004,0.079835236,-0.3095439,-3.1117346,-0.25554916,131.77486,0.16383544,0.30765074,0.4377472,0.14250395,0.091602534,inf,inf,inf,inf,1,1,1,1,2,0,2,1,5,1,1,1
424215930,15154129,-33.9385715,18.8741563,-2.0837126,0.3544742,0.26841465,-0.23954648,0.1367903,0.0,-0.011915163,-0.014021258,0.007906457,-0.040269606,-1.5294534,0.020032808,-0.32580173,0.38260713,0.039925408,-0.26144904,-3.1119356,-0.25554916,131.77486,0.16464648,0.29147345,0.43492442,0.13369009,0.08987744,inf,inf,inf,inf,1,1,1,1,2,0,2,1,5,1,1,1
424225934,15154129,-33.9385715,18.8741563,-2.08425,0.35431314,0.2676283,-0.23954648,0.1367903,0.0,-0.013716439,-0.015787518,0.007426103,-0.041102562,-1.5294534,0.020032808,-0.32580173,-0.003691529,-0.1478319,-0.169342,-3.1120288,-0.25554916,131.77486,0.16543281,0.29229388,0.43547663,0.13416956,0.090001054,inf,inf,inf,inf,1,1,1,1,2,0,2,1,5,1,1,1
424235938,15154129,-33.9385715,18.8741563,-2.0847821,0.35415512,0.26686823,-0.23954648,0.1367903,0.0,-0.014322588,-0.015312852,0.007692882,-0.041153155,-1.5294534,0.020032808,-0.32580173,0.022228733,-0.19436352,0.04228854,-3.1121492,-0.25554916,131.77486,0.16619289,0.29311943,0.43603036,0.1346525,0.09012482,inf,inf,inf,inf,1,1,1,1,2,0,2,1,5,1,1,1
424245942,15154129,-33.9385715,18.8741563,-2.0853078,0.35401785,0.2657222,-0.23954648,0.1367903,0.0,-0.015406027,-0.013401923,0.008118015,-0.041429807,-1.5294534,0.020032808,-0.32580173,-0.029079475,-0.31195694,0.2521495,-3.1123822,-0.25554916,131.77486,0.16733894,0.2939502,0.43322796,0.13513944,0.08998568,inf,inf,inf,inf,1,1,1,1,2,0,2,1,5,1,1,1
424255947,15154129,-33.9385715,18.8741563,-2.0858316,0.35390955,0.26462325,-0.23954648,0.1367903,0.0,-0.016695011,-0.009805893,0.009451157,-0.04074752,-1.5294534,0.020032808,-0.32580173,-0.048658658,-0.14217152,0.5465375,-3.1128623,-0.25554916,131.77486,0.16843787,0.29478613,0.43378022,0.13562627,0.09010966,inf,inf,inf,inf,1,1,1,1,2,0,2,1,5,1,1,1
424265951,15154129,-33.9385715,18.8741563,-2.0863492,0.35384628,0.26357502,-0.23954648,0.1367903,0.0,-0.01798509,-0.004136122,0.01025989,-0.040541384,-1.5294534,0.020032808,-0.32580173,-0.2800005,0.15608962,0.55083257,-3.1137426,-0.25554916,131.77486,0.1694861,0.2956273,0.43433383,0.13611406,0.09023347,inf,inf,inf,inf,1,1,1,1,2,0,2,1,5,1,1,1
424275957,15154129,-33.9385715,18.8741563,-2.0868647,0.35383117,0.2625732,-0.23954648,0.1367903,0.0,-0.019634342,0.00039513584,0.010493231,-0.04086356,-1.5294534,0.020032808,-0.32580173,-0.47841525,0.18362701,0.47930852,-3.115016,-0.25554916,131.77486,0.17048791,0.29647368,0.43488893,0.13660003,0.090357415,inf,inf,inf,inf,1,1,1,1,2,0,2,1,5,1,1,1
424285960,15154129,-33.9385715,18.8741563,-2.08738,0.3538602,0.2616124,-0.23954648,0.1367903,0.0,-0.021187076,0.0050840415,0.009805784,-0.042061836,-1.5294534,0.020032808,-0.32580173,-0.62187684,0.30141148,0.21728949,-3.1166527,-0.25554916,131.77486,0.17144874,0.2973253,0.43544537,0.1370856,0.0904812,inf,inf,inf,inf,1,1,1,1,2,0,2,1,5,1,1,1
424296020,15154129,-33.9385715,18.8741563,-2.0879061,0.3539321,0.2606816,-0.23954648,0.1367903,0.0,-0.023010492,0.008932184,0.008366373,-0.043968596,-1.5294534,0.020032808,-0.32580173,-0.46517715,0.2515732,0.06365134,-3.1184886,-0.25554916,131.77486,0.17237952,0.2981822,0.43600333,0.13757563,0.09060517,inf,inf,inf,inf,1,1,1,1,2,0,2,1,5,1,1,1
424306007,15154129,-33.9385715,18.8741563,-2.0884411,0.35403675,0.25977692,-0.23954648,0.1367903,0.0,-0.024853958,0.012927632,0.007089705,-0.045670815,-1.5294534,0.020032808,-0.32580173,-0.36100984,0.53530765,-0.062451705,-3.1203346,-0.25554916,131.77486,0.1732842,0.29904437,0.4365627,0.13806973,0.09072909,inf,inf,inf,inf,1,1,1,1,2,0,2,1,5,1,1,1
424315983,15154129,-33.9385715,18.8741563,-2.0889843,0.35417095,0.25889793,-0.23954648,0.1367903,0.0,-0.026602915,0.015753007,0.0058666673,-0.04728051,-1.5294534,0.020032808,-0.32580173,-0.29115897,0.628755,-0.21165018,-3.122063,-0.25554916,131.77486,0.17416319,0.29991183,0.4371234,0.13856703,0.09085282,inf,inf,inf,inf,1,1,1,1,2,0,2,1,5,1,1,1
424325985,15154129,-33.9385715,18.8741563,-2.0895336,0.35433173,0.25805184,-0.23954648,0.1367903,0.0,-0.027622426,0.017727904,0.00567715,-0.047818128,-1.5294534,0.020032808,-0.32580173,-0.1382433,0.49920955,-0.32744524,-3.1236138,-0.25554916,131.77486,0.17500928,0.30078468,0.4376856,0.13906747,0.09097656,inf,inf,inf,inf,1,1,1,1,2,0,2,1,5,1,1,1
424335982,15154129,-33.9385715,18.8741563,-2.090087,0.3545202,0.256818,-0.23954648,0.1367903,0.0,-0.028779503,0.02021589,0.006500311,-0.047739893,-1.5294534,0.020032808,-0.32580173,-0.025187405,0.3942743,-0.46306676,-3.124931,-0.25554916,131.77486,0.17624313,0.30166286,0.43485346,0.13956977,0.090829715,inf,inf,inf,inf,1,1,1,1,2,0,2,1,5,1,1,1
424346021,15154129,-33.9385715,18.8741563,-2.0906472,0.35473818,0.2556445,-0.23954648,0.1367903,0.0,-0.029594013,0.02282383,0.007989594,-0.04694086,-1.5294534,0.020032808,-0.32580173,0.22621553,0.33777753,-0.47204527,-3.1260326,-0.25554916,131.77486,0.17741662,0.30254644,0.43541417,0.1400722,0.09095349,inf,inf,inf,inf,1,1,1,1,2,0,2,1,5,1,1,1
424355991,15154129,-33.9385715,18.8741563,-2.0912101,0.35498297,0.2545244,-0.23954648,0.1367903,0.0,-0.030936126,0.02572254,0.009239615,-0.04632935,-1.5294534,0.020032808,-0.32580173,0.30313444,0.38994834,-0.34067905,-3.1269019,-0.25554916,131.77486,0.17853671,0.30343542,0.43597618,0.14057149,0.09107717,inf,inf,inf,inf,1,1,1,1,2,0,2,1,5,1,1,1
424365995,15154129,-33.9385715,18.8741563,-2.0917778,0.35525542,0.2534571,-0.23954648,0.1367903,0.0,-0.032140166,0.027991934,0.010839708,-0.045317218,-1.5294534,0.020032808,-0.32580173,0.31686756,0.32905287,-0.0995386,-3.1276138,-0.25554916,131.77486,0.17960402,0.30432984,0.43653974,0.1410704,0.09120097,inf,inf,inf,inf,1,1,1,1,2,0,2,1,5,1,1,1
424376000,15154129,-33.9385715,18.8741563,-2.0923448,0.35555497,0.2524442,-0.23954648,0.1367903,0.0,-0.033418257,0.030192915,0.012354128,-0.04434216,-1.5294534,0.020032808,-0.32580173,0.13640201,0.17039928,0.019262992,-3.128258,-0.25554916,131.77486,0.18061692,0.30522966,0.43710464,0.1415718,0.091324545,inf,inf,inf,inf,1,1,1,1,2,0,2,1,5,1,1,1
424386005,15154129,-33.9385715,18.8741563,-2.0929153,0.35587895,0.25148112,-0.23954648,0.1367903,0.0,-0.03497542,0.03200493,0.01367159,-0.04351741,-1.5294534,0.020032808,-0.32580173,0.026836455,-0.016010579,0.19990353,-3.1288848,-0.25554916,131.77486,0.18158,0.3061349,0.43767107,0.1420755,0.09144811,inf,inf,inf,inf,1,1,1,1,2,0,2,1,5,1,1,1
424396008,15154129,-33.9385715,18.8741563,-2.0934944,0.3562214,0.2505695,-0.23954648,0.1367903,0.0,-0.03728112,0.033772267,0.015774578,-0.04186233,-1.5294534,0.020032808,-0.32580173,-0.14951178,-0.029394357,0.47706035,-3.1295352,-0.25554916,131.77486,0.18249163,0.30704567,0.43823892,0.14258146,0.09157154,inf,inf,inf,inf,1,1,1,1,2,0,2,1,5,1,1,1
424406014,15154129,-33.9385715,18.8741563,-2.0940876,0.35657543,0.2497022,-0.23954648,0.1367903,0.0,-0.039922893,0.034805216,0.01645372,-0.0415881,-1.5294534,0.020032808,-0.32580173,-0.31763315,0.0034847974,0.6430307,-3.1302085,-0.25554916,131.77486,0.18335892,0.30796188,0.4388081,0.1430857,0.09169469,inf,inf,inf,inf,1,1,1,1,2,0,2,1,5,1,1,1
424416017,15154129,-33.9385715,18.8741563,-2.094698,0.35693228,0.24861883,-0.23954648,0.1367903,0.0,-0.043485098,0.034971613,0.016079292,-0.04258138,-1.5294534,0.020032808,-0.32580173,-0.6486064,0.035360035,0.6042535,-3.1308944,-0.25554916,131.77486,0.1844423,0.30888364,0.43595707,0.14359017,0.09154135,inf,inf,inf,inf,1,1,1,1,2,0,2,1,5,1,1,1
424426021,15154129,-33.9385715,18.8741563,-2.0951948,0.35665295,0.2473721,-0.23954648,0.1367903,0.0,-0.046848502,0.034741104,0.015059688,-0.04437899,-1.5294534,0.020032808,-0.32580173,-0.8118204,0.053043492,0.42694545,-3.1315718,-0.25554916,131.77486,0.18568902,0.2924573,0.43316576,0.134593,0.08981919,inf,inf,inf,inf,1,1,1,1,2,0,2,1,5,1,1,1
424436025,15154129,-33.9385715,18.8741563,-2.095716,0.35639024,0.24616483,-0.23954648,0.1367903,0.0,-0.048999656,0.034165047,0.013066195,-0.04709236,-1.5294534,0.020032808,-0.32580173,-0.67385995,-0.043583997,0.14743228,-3.1322196,-0.25554916,131.77486,0.1868963,0.29328257,0.4337165,0.13508122,0.08994232,inf,inf,inf,inf,1,1,1,1,2,0,2,1,5,1,1,1
424446030,15154129,-33.9385715,18.8741563,-2.0962503,0.35614535,0.24498521,-0.23954648,0.1367903,0.0,-0.04949206,0.03462006,0.010502826,-0.050320223,-1.5294534,0.020032808,-0.32580173,-0.37911844,0.06735897,-0.018303456,-3.1329796,-0.25554916,131.77486,0.18807591,0.29411307,0.43426853,0.13557251,0.090065405,inf,inf,inf,inf,1,1,1,1,2,0,2,1,5,1,1,1
424456034,15154129,-33.9385715,18.8741563,-2.0967853,0.35592362,0.24383247,-0.23954648,0.1367903,0.0,-0.048958287,0.03514746,0.008184766,-0.053249065,-1.5294534,0.020032808,-0.32580173,-0.10955997,0.06228458,-0.19229284,-3.1339822,-0.25554916,131.77486,0.18922865,0.29494882,0.43482208,0.13606794,0.090188615,inf,inf,inf,inf,1,1,1,1,2,0,2,1,5,1,1,1
424466038,15154129,-33.9385715,18.8741563,-2.0973117,0.35571936,0.24270166,-0.23954648,0.1367903,0.0,-0.048216794,0.034670856,0.004572439,-0.057420906,-1.5294534,0.020032808,-0.32580173,-0.054839082,-0.035930052,-0.6196557,-3.1353867,-0.25554916,131.77486,0.19035946,0.2957898,0.43537694,0.13656896,0.09031177,inf,inf,inf,inf,1,1,1,1,2,0,2,1,5,1,1,1
424476043,15154129,-33.9385715,18.8741563,-2.0978277,0.35552606,0.24158268,-0.23954648,0.1367903,0.0,-0.047350746,0.033523813,0.00057849364,-0.061924804,-1.5294534,0.020032808,-0.32580173,-0.0046155006,-0.18430725,-0.93136597,-3.1370947,-0.25554916,131.77486,0.19147845,0.29663613,0.43593332,0.13706796,0.090435006,inf,inf,inf,inf,1,1,1,1,2,0,2,1,5,1,1,1
424486047,15154129,-33.9385715,18.8741563,-2.0983293,0.3553297,0.24046831,-0.23954648,0.1367903,0.0,-0.04482839,0.030552298,-0.0036150669,-0.06658075,-1.5294534,0.020032808,-0.32580173,0.38556463,-0.40716326,-1.1186917,-3.139001,-0.25554916,131.77486,0.19259281,0.2974878,0.43649113,0.13756733,0.09055831,inf,inf,inf,inf,1,1,1,1,2,0,2,1,5,1,1,1
424496053,15154129,-33.9385715,18.8741563,-2.0988092,0.35511452,0.23934403,-0.23954648,0.1367903,0.0,-0.04233877,0.026871521,-0.008514193,-0.07189726,-1.5294534,0.020032808,-0.32580173,0.6441116,-0.41815057,-1.0544122,-3.141009,-0.25554916,131.77486,0.19371709,0.2983448,0.43705022,0.13806488,0.09068156,inf,inf,inf,inf,1,1,1,1,2,0,2,1,5,1,1,1
424506057,15154129,-33.9385715,18.8741563,-2.099265,0.35487363,0.23788814,-0.23954648,0.1367903,0.0,-0.039610457,0.022601433,-0.013355603,-0.077432536,-1.5294534,0.020032808,-0.32580173,0.88085026,-0.43196458,-0.9078027,3.1401505,-0.25554916,131.77486,0.19517298,0.29920715,0.43422988,0.13855949,0.09053726,inf,inf,inf,inf,1,1,1,1,2,0,2,1,5,1,1,1
424516062,15154129,-33.9385715,18.8741563,-2.0996897,0.35460144,0.23642457,-0.23954648,0.1367903,0.0,-0.037232075,0.018255502,-0.018473405,-0.08318903,-1.5294534,0.020032808,-0.32580173,0.7528774,-0.33356863,-0.7596394,3.138183,-0.25554916,131.77486,0.19663656,0.30007488,0.43478748,0.13905415,0.09066053,inf,inf,inf,inf,1,1,1,1,2,0,2,1,5,1,1,1
424526065,15154129,-33.9385715,18.8741563,-2.1000807,0.35430452,0.23495354,-0.23954648,0.1367903,0.0,-0.034698743,0.015148526,-0.023102015,-0.08840224,-1.5294534,0.020032808,-0.32580173,0.5509414,-0.15390229,-0.5075215,3.1363323,-0.25554916,131.77486,0.19810759,0.30094793,0.43534663,0.13954824,0.090783834,inf,inf,inf,inf,1,1,1,1,2,0,2,1,5,1,1,1
424536070,15154129,-33.9385715,18.8741563,-2.100435,0.35399443,0.23347421,-0.23954648,0.1367903,0.0,-0.031478908,0.012983426,-0.027534878,-0.09336868,-1.5294534,0.020032808,-0.32580173,0.44018352,-0.05160578,-0.2121563,3.1345913,-0.25554916,131.77486,0.19958691,0.3018264,0.4359071,0.14004317,0.090907045,inf,inf,inf,inf,1,1,1,1,2,0,2,1,5,1,1,1
424546074,15154129,-33.9385715,18.8741563,-2.1007464,0.3536855,0.23198217,-0.23954648,0.1367903,0.0,-0.027345445,0.012942398,-0.03279956,-0.09911692,-1.5294534,0.020032808,-0.32580173,0.40604722,0.18402171,0.012788791,3.1327555,-0.25554916,131.77486,0.20107895,0.30271024,0.43646908,0.1405394,0.09103037,inf,inf,inf,inf,1,1,1,1,2,0,2,1,5,1,1,1
424556107,15154129,-33.9385715,18.8741563,-2.101012,0.35339555,0.23046693,-0.23954648,0.1367903,0.0,-0.023383783,0.013864746,-0.039301004,-0.10605494,-1.5294534,0.020032808,-0.32580173,0.26420522,0.19763096,0.073454164,3.130588,-0.25554916,131.77486,0.20259419,0.3035995,0.4370324,0.14103724,0.09115356,inf,inf,inf,inf,1,1,1,1,2,0,2,1,5,1,1,1
424566083,15154129,-33.9385715,18.8741563,-2.1012247,0.35312834,0.22893001,-0.23954648,0.1367903,0.0,-0.01908952,0.015401388,-0.046044264,-0.11318865,-1.5294534,0.020032808,-0.32580173,0.009584822,0.27531126,-0.008113871,3.1279893,-0.25554916,131.77486,0.20413111,0.30449423,0.43759724,0.14153315,0.091276824,inf,inf,inf,inf,1,1,1,1,2,0,2,1,5,1,1,1
424576087,15154129,-33.9385715,18.8741563,-2.1013868,0.35289067,0.22736768,-0.23954648,0.1367903,0.0,-0.0145620005,0.0174089,-0.05261031,-0.120102026,-1.5294534,0.020032808,-0.32580173,-0.15461837,0.3176237,-0.13583578,3.1250186,-0.25554916,131.77486,0.20569344,0.30539438,0.43816343,0.14203519,0.09139999,inf,inf,inf,inf,1,1,1,1,2,0,2,1,5,1,1,1
424586091,15154129,-33.9385715,18.8741563,-2.1014955,0.35268396,0.22578807,-0.23954648,0.1367903,0.0,-0.008988736,0.018930815,-0.058085296,-0.12588182,-1.5294534,0.020032808,-0.32580173,-0.07871156,0.17399989,-0.20123369,3.1217372,-0.25554916,131.77486,0.20727305,0.3063,0.43873113,0.14254172,0.09152331,inf,inf,inf,inf,1,1,1,1,2,0,2,1,5,1,1,1
424596096,15154129,-33.9385715,18.8741563,-2.1015549,0.35250983,0.22409745,-0.23954648,0.1367903,0.0,-0.0036302789,0.02102435,-0.0633308,-0.13149044,-1.5294534,0.020032808,-0.32580173,0.20380615,0.07908576,-0.326798,3.1182034,-0.25554916,131.77486,0.20896368,0.3072112,0.43588027,0.14305131,0.0913713,inf,inf,inf,inf,1,1,1,1,2,0,2,1,5,1,1,1
424606100,15154129,-33.9385715,18.8741563,-2.1015644,0.35237208,0.22240856,-0.23954648,0.1367903,0.0,0.0012841908,0.023636471,-0.06713947,-0.1356192,-1.5294534,0.020032808,-0.32580173,0.29079852,0.024471097,-0.515442,3.1145692,-0.25554916,131.77486,0.21065256,0.30812788,0.4364463,0.14356534,0.0914947,inf,inf,inf,inf,1,1,1,1,2,0,2,1,5,1,1,1
424616104,15154129,-33.9385715,18.8741563,-2.101547,0.3524919,0.2207998,-0.23954648,0.1367903,0.0,0.0046306574,0.02620663,-0.070448205,-0.13913427,-1.5294534,0.020032808,-0.32580173,0.22745259,0.05976446,-0.79258955,3.1108987,-0.25554916,131.77486,0.21226132,0.29185256,0.4336527,0.13461243,0.08977605,inf,inf,inf,inf,1,1,1,1,2,0,2,1,5,1,1,1
424626110,15154129,-33.9385715,18.8741563,-2.1014988,0.3526377,0.21919829,-0.23954648,0.1367903,0.0,0.0078673875,0.028341914,-0.07342669,-0.14228256,-1.5294534,0.020032808,-0.32580173,0.4371342,0.078545325,-0.96761656,3.1073012,-0.25554916,131.77486,0.21386284,0.29267347,0.43420318,0.13511197,0.08989973,inf,inf,inf,inf,1,1,1,1,2,0,2,1,5,1,1,1
424636113,15154129,-33.9385715,18.8741563,-2.1014237,0.35280925,0.21761023,-0.23954648,0.1367903,0.0,0.010510563,0.030597815,-0.07463281,-0.14362313,-1.5294534,0.020032808,-0.32580173,0.59980047,0.09671703,-0.8575975,3.103894,-0.25554916,131.77486,0.2154509,0.29349968,0.43475524,0.13561691,0.09002364,inf,inf,inf,inf,1,1,1,1,2,0,2,1,5,1,1,1
424646119,15154129,-33.9385715,18.8741563,-2.101325,0.35300452,0.2160436,-0.23954648,0.1367903,0.0,0.01335653,0.03252361,-0.07443245,-0.14352408,-1.5294534,0.020032808,-0.32580173,0.90082484,0.107709855,-0.567356,3.1007297,-0.25554916,131.77486,0.21701752,0.2943312,0.43530855,0.13612416,0.09014748,inf,inf,inf,inf,1,1,1,1,2,0,2,1,5,1,1,1
424656121,15154129,-33.9385715,18.8741563,-2.1012006,0.35322246,0.2145122,-0.23954648,0.1367903,0.0,0.015103223,0.034640502,-0.072186336,-0.14134684,-1.5294534,0.020032808,-0.32580173,0.80853117,0.17504585,-0.07311706,3.0978634,-0.25554916,131.77486,0.21854892,0.29516804,0.4358634,0.13663292,0.09027166,inf,inf,inf,inf,1,1,1,1,2,0,2,1,5,1,1,1
424666127,15154129,-33.9385715,18.8741563,-2.1010554,0.35345313,0.2130345,-0.23954648,0.1367903,0.0,0.016439322,0.03471794,-0.06843599,-0.13763374,-1.5294534,0.020032808,-0.32580173,0.67546326,0.06047514,0.30186743,3.0953605,-0.25554916,131.77486,0.22002663,0.2960103,0.43641955,0.13714519,0.09039578,inf,inf,inf,inf,1,1,1,1,2,0,2,1,5,1,1,1
424676131,15154129,-33.9385715,18.8741563,-2.1008961,0.35367686,0.2114927,-0.23954648,0.1367903,0.0,0.016045757,0.032693576,-0.064883836,-0.13421303,-1.5294534,0.020032808,-0.32580173,0.25467646,-0.10943764,0.53033805,3.093356,-0.25554916,131.77486,0.1,0.29685792,0.4336108,0.13765806,0.09025522,inf,inf,inf,inf,1,1,1,1,2,0,2,1,5,1,1,1
424686135,15154129,-33.9385715,18.8741563,-2.100739,0.35387662,0.21001275,-0.23954648,0.1367903,0.0,0.013654365,0.028676812,-0.06135874,-0.13078552,-1.5294534,0.020032808,-0.32580173,-0.2911643,-0.40215448,0.73872733,3.0921364,-0.25554916,131.77486,0.1,0.29771098,0.4341656,0.13810667,0.090378985,inf,inf,inf,inf,1,1,1,1,2,0,2,1,5,1,1,1
424696139,15154129,-33.9385715,18.8741563,-2.1006002,0.35403275,0.20859233,-0.23954648,0.1367903,0.0,0.010410024,0.023170646,-0.058040798,-0.12753282,-1.5294534,0.020032808,-0.32580173,-0.66432565,-0.5534719,0.9386471,3.0919542,-0.25554916,131.77486,0.10101825,0.29856947,0.43472168,0.1385545,0.09050252,inf,inf,inf,inf,1,1,1,1,2,0,2,1,5,1,1,1
424706144,15154129,-33.9385715,18.8741563,-2.1004944,0.35414258,0.20722604,-0.23954648,0.1367903,0.0,0.0060448307,0.018892325,-0.055594645,-0.12512091,-1.5294534,0.020032808,-0.32580173,-0.88966525,-0.37757272,1.0401958,3.0927315,-0.25554916,131.77486,0.10210672,0.29943332,0.4352793,0.13900267,0.09062612,inf,inf,inf,inf,1,1,1,1,2,0,2,1,5,1,1,1
424716148,15154129,-33.9385715,18.8741563,-2.100427,0.35422212,0.20591003,-0.23954648,0.1367903,0.0,0.001981782,0.016329814,-0.053727407,-0.12325854,-1.5294534,0.020032808,-0.32580173,-0.91605514,-0.20927371,1.0021297,3.0942507,-0.25554916,131.77486,0.10309085,0.3003026,0.43583828,0.1394547,0.09074948,inf,inf,inf,inf,1,1,1,1,2,0,2,1,5,1,1,1
424726152,15154129,-33.9385715,18.8741563,-2.1003976,0.35429338,0.20464057,-0.23954648,0.1367903,0.0,-0.0018848309,0.016347468,-0.053373963,-0.12288149,-1.5294534,0.020032808,-0.32580173,-0.87641364,0.022441195,0.575974,3.0960844,-0.25554916,131.77486,0.10397738,0.30117732,0.43639874,0.13991308,0.090872906,inf,inf,inf,inf,1,1,1,1,2,0,2,1,5,1,1,1
424736157,15154129,-33.9385715,18.8741563,-2.1004004,0.35438606,0.20340759,-0.23954648,0.1367903,0.0,-0.005028705,0.019617384,-0.053420223,-0.122877955,-1.5294534,0.020032808,-0.32580173,-0.87013894,0.30015692,0.20854527,3.0979428,-0.25554916,131.77486,0.104744524,0.3020575,0.43696055,0.14037134,0.090996176,inf,inf,inf,inf,1,1,1,1,2,0,2,1,5,1,1,1
424746165,15154129,-33.9385715,18.8741563,-2.1004336,0.35451952,0.2022064,-0.23954648,0.1367903,0.0,-0.0072513735,0.024080258,-0.053602755,-0.12298472,-1.5294534,0.020032808,-0.32580173,-0.581064,0.4877708,-0.06734576,3.099408,-0.25554916,131.77486,0.10543412,0.3029432,0.4375239,0.14083092,0.091119535,inf,inf,inf,inf,1,1,1,1,2,0,2,1,5,1,1,1
424756219,15154129,-33.9385715,18.8741563,-2.1004956,0.35470054,0.20103031,-0.23954648,0.1367903,0.0,-0.009096634,0.028682165,-0.053947806,-0.12322996,-1.5294534,0.020032808,-0.32580173,-0.1819317,0.6048213,-0.29962322,3.1003077,-0.25554916,131.77486,0.1060223,0.30383435,0.43808854,0.14128757,0.09124285,inf,inf,inf,inf,1,1,1,1,2,0,2,1,5,1,1,1
424766240,15154129,-33.9385715,18.8741563,-2.1005888,0.35492405,0.19960973,-0.23954648,0.1367903,0.0,-0.011975465,0.032100536,-0.054618873,-0.12404882,-1.5294534,0.020032808,-0.32580173,0.0763425,0.50082755,-0.45469335,3.1007037,-0.25554916,131.77486,0.100123465,0.30473098,0.4352497,0.14174433,0.09109371,inf,inf,inf,inf,1,1,1,1,2,0,2,1,5,1,1,1
424776223,15154129,-33.9385715,18.8741563,-2.1007144,0.35518336,0.19822766,-0.23954648,0.1367903,0.0,-0.015089781,0.035009563,-0.05444109,-0.12398423,-1.5294534,0.020032808,-0.32580173,0.22625712,0.37192115,-0.62691647,3.1008115,-0.25554916,131.77486,0.10083048,0.30563313,0.43581292,0.14219688,0.0912171,inf,inf,inf,inf,1,1,1,1,2,0,2,1,5,1,1,1
424786181,15154129,-33.9385715,18.8741563,-2.1008677,0.35547608,0.19688775,-0.23954648,0.1367903,0.0,-0.01834508,0.037837893,-0.052913114,-0.1225374,-1.5294534,0.020032808,-0.32580173,0.113278836,0.27189156,-0.5753003,3.1007347,-0.25554916,131.77486,0.10143526,0.30654076,0.43637747,0.14264855,0.09134026,inf,inf,inf,inf,1,1,1,1,2,0,2,1,5,1,1,1
424796183,15154129,-33.9385715,18.8741563,-2.1010478,0.35579848,0.19559151,-0.23954648,0.1367903,0.0,-0.02047095,0.039880782,-0.050645147,-0.1203188,-1.5294534,0.020032808,-0.32580173,0.23782034,0.17501964,-0.38018918,3.1004093,-0.25554916,131.77486,0.101991564,0.3074539,0.43694356,0.14309995,0.091463566,inf,inf,inf,inf,1,1,1,1,2,0,2,1,5,1,1,1
424806187,15154129,-33.9385715,18.8741563,-2.1012433,0.35614493,0.19433515,-0.23954648,0.1367903,0.0,-0.021253964,0.04160516,-0.048856016,-0.11854913,-1.5294534,0.020032808,-0.32580173,0.4624746,0.06456836,-0.07724931,3.0998688,-0.25554916,131.77486,0.10247709,0.30837253,0.437511,0.14354567,0.09158663,inf,inf,inf,inf,1,1,1,1,2,0,2,1,5,1,1,1
424816197,15154129,-33.9385715,18.8741563,-2.101133,0.3562622,0.19327319,-0.23954648,0.1367903,0.0,-0.021771114,0.043231945,-0.046451528,-0.11597786,-1.5294534,0.020032808,-0.32580173,0.27724496,-0.064289205,0.25172952,3.0990765,-0.25554916,131.77486,0.10657635,0.2920464,0.43469417,0.13452047,0.08986204,inf,inf,inf,inf,1,1,1,1,2,0,2,1,5,1,1,1
424826198,15154129,-33.9385715,18.8741563,-2.1010244,0.3564094,0.19225517,-0.23954648,0.1367903,0.0,-0.022310302,0.044848092,-0.04389424,-0.11323305,-1.5294534,0.020032808,-0.32580173,-0.13507125,-0.18841416,0.4090115,3.0979533,-0.25554916,131.77486,0.10685283,0.29286894,0.43524602,0.13494138,0.08998517,inf,inf,inf,inf,1,1,1,1,2,0,2,1,5,1,1,1
424836200,15154129,-33.9385715,18.8741563,-2.1009176,0.35658205,0.1912878,-0.23954648,0.1367903,0.0,-0.022953527,0.04583022,-0.039811973,-0.10894331,-1.5294534,0.020032808,-0.32580173,-0.57635283,-0.32010043,0.7361905,3.0965846,-0.25554916,131.77486,0.10711379,0.2936966,0.43579936,0.13535789,0.09010849,inf,inf,inf,inf,1,1,1,1,2,0,2,1,5,1,1,1
424846205,15154129,-33.9385715,18.8741563,-2.100819,0.3567745,0.19038123,-0.23954648,0.1367903,0.0,-0.023096647,0.04660382,-0.03492017,-0.10382538,-1.5294534,0.020032808,-0.32580173,-0.6088826,-0.36403358,1.0175544,3.095084,-0.25554916,131.77486,0.1073437,0.29452947,0.436354,0.13577554,0.0902317,inf,inf,inf,inf,1,1,1,1,2,0,2,1,5,1,1,1
424856209,15154129,-33.9385715,18.8741563,-2.1007354,0.35698426,0.18912736,-0.23954648,0.1367903,0.0,-0.024196219,0.0476421,-0.030165331,-0.09924406,-1.5294534,0.020032808,-0.32580173,-0.6342811,-0.2695835,1.1057266,3.0935695,-0.25554916,131.77486,0.1,0.29536748,0.43354526,0.13619386,0.090091206,inf,inf,inf,inf,1,1,1,1,2,0,2,1,5,1,1,1
424866214,15154129,-33.9385715,18.8741563,-2.100673,0.35720742,0.18795459,-0.23954648,0.1367903,0.0,-0.025846692,0.04828192,-0.025843887,-0.09506046,-1.5294534,0.020032808,-0.32580173,-0.67604256,-0.12975986,1.025476,3.0919678,-0.25554916,131.77486,0.1,0.29621068,0.43409857,0.1366136,0.09021464,inf,inf,inf,inf,1,1,1,1,2,0,2,1,5,1,1,1
424876228,15154129,-33.9385715,18.8741563,-2.1006415,0.35743552,0.18686153,-0.23954648,0.1367903,0.0,-0.028949015,0.047543924,-0.021999631,-0.09132042,-1.5294534,0.020032808,-0.32580173,-0.81549287,-0.10043009,0.74617624,3.090293,-0.25554916,131.77486,0.1,0.29705903,0.43465313,0.13703726,0.09033776,inf,inf,inf,inf,1,1,1,1,2,0,2,1,5,1,1,1
424886227,15154129,-33.9385715,18.8741563,-2.1006486,0.35765418,0.18583788,-0.23954648,0.1367903,0.0,-0.031843517,0.045991097,-0.01959096,-0.088983245,-1.5294534,0.020032808,-0.32580173,-0.7013093,0.060912825,0.40007597,3.088618,-0.25554916,131.77486,0.1,0.29791263,0.43520927,0.13746378,0.090460844,inf,inf,inf,inf,1,1,1,1,2,0,2,1,5,1,1,1
424896229,15154129,-33.9385715,18.8741563,-2.1006987,0.3578566,0.18487538,-0.23954648,0.1367903,0.0,-0.034217373,0.043486867,-0.016665246,-0.086098,-1.5294534,0.020032808,-0.32580173,-0.2601924,0.15053234,0.30940616,3.087081,-0.25554916,131.77486,0.1,0.29877144,0.4357667,0.13789648,0.09058361,inf,inf,inf,inf,1,1,1,1,2,0,2,1,5,1,1,1
424906231,15154129,-33.9385715,18.8741563,-2.1007922,0.35802555,0.18397348,-0.23954648,0.1367903,0.0,-0.03710082,0.038911827,-0.01414533,-0.083588585,-1.5294534,0.020032808,-0.32580173,0.11473461,0.18889584,0.12850045,3.085644,-0.25554916,131.77486,0.1,0.29963553,0.43632567,0.13833156,0.090706244,inf,inf,inf,inf,1,1,1,1,2,0,2,1,5,1,1,1
424916236,15154129,-33.9385715,18.8741563,-2.1009262,0.3581462,0.1831289,-0.23954648,0.1367903,0.0,-0.040540855,0.0325612,-0.011538711,-0.08096433,-1.5294534,0.020032808,-0.32580173,0.16800183,0.07881655,-0.009595516,3.0843961,-0.25554916,131.77486,0.10023889,0.3005049,0.43688592,0.13876809,0.090828724,inf,inf,inf,inf,1,1,1,1,2,0,2,1,5,1,1,1
424926240,15154129,-33.9385715,18.8741563,-2.1011043,0.35820606,0.18234561,-0.23954648,0.1367903,0.0,-0.044953413,0.024385553,-0.0081304675,-0.07751089,-1.5294534,0.020032808,-0.32580173,0.047740065,-0.27542347,-0.08651827,3.0834606,-0.25554916,131.77486,0.100474015,0.30137956,0.43744773,0.13920768,0.09095132,inf,inf,inf,inf,1,1,1,1,2,0,2,1,5,1,1,1
424936245,15154129,-33.9385715,18.8741563,-2.1013255,0.35820034,0.18146546,-0.23954648,0.1367903,0.0,-0.048424818,0.01669723,-0.005021035,-0.07448808,-1.5294534,0.020032808,-0.32580173,0.08148541,-0.4757526,-0.15215784,3.0829954,-0.25554916,131.77486,0.1,0.30225956,0.43462077,0.13964792,0.09080419,inf,inf,inf,inf,1,1,1,1,2,0,2,1,5,1,1,1
424946249,15154129,-33.9385715,18.8741563,-2.101585,0.35813305,0.18064849,-0.23954648,0.1367903,0.0,-0.05206936,0.009288381,-0.001136166,-0.07065832,-1.5294534,0.020032808,-0.32580173,-0.031525534,-0.7242935,0.008478864,3.0830452,-0.25554916,131.77486,0.1,0.30314484,0.43518093,0.14008461,0.09092678,inf,inf,inf,inf,1,1,1,1,2,0,2,1,5,1,1,1
424956255,15154129,-33.9385715,18.8741563,-2.1018825,0.35801017,0.17989326,-0.23954648,0.1367903,0.0,-0.0553389,0.0029599275,0.0023999168,-0.06714685,-1.5294534,0.020032808,-0.32580173,-0.04273297,-0.8753935,0.16903256,3.083544,-0.25554916,131.77486,0.1,0.30403545,0.43574265,0.14051643,0.091049425,inf,inf,inf,inf,1,1,1,1,2,0,2,1,5,1,1,1
424966262,15154129,-33.9385715,18.8741563,-2.1022115,0.3578452,0.17919526,-0.23954648,0.1367903,0.0,-0.058625054,-0.0020232582,0.0056246836,-0.06391808,-1.5294534,0.020032808,-0.32580173,-0.28705043,-1.0600168,0.31806105,3.0842612,-0.25554916,131.77486,0.1,0.30493137,0.43630567,0.14094783,0.09117203,inf,inf,inf,inf,1,1,1,1,2,0,2,1,5,1,1,1
424976308,15154129,-33.9385715,18.8741563,-2.1025648,0.35765827,0.17855373,-0.23954648,0.1367903,0.0,-0.060558625,-0.0043325815,0.008392055,-0.06111866,-1.5294534,0.020032808,-0.32580173,-0.46972173,-1.1256007,0.33905557,3.0848916,-0.25554916,131.77486,0.1,0.3058326,0.43687025,0.1413818,0.09129485,inf,inf,inf,inf,1,1,1,1,2,0,2,1,5,1,1,1
424986266,15154129,-33.9385715,18.8741563,-2.1029203,0.35746834,0.17796421,-0.23954648,0.1367903,0.0,-0.06052547,-0.00473245,0.011211306,-0.058241583,-1.5294534,0.020032808,-0.32580173,-0.5508538,-1.1346029,0.40535644,3.085231,-0.25554916,131.77486,0.1,0.30673915,0.43743613,0.14181468,0.091417484,inf,inf,inf,inf,1,1,1,1,2,0,2,1,5,1,1,1
424996271,15154129,-33.9385715,18.8741563,-2.1032746,0.35728154,0.17742532,-0.23954648,0.1367903,0.0,-0.058688205,-0.0037294738,0.013789627,-0.055579815,-1.5294534,0.020032808,-0.32580173,-0.33980492,-0.7838431,0.511527,3.0851462,-0.25554916,131.77486,0.1,0.30765104,0.43800357,0.14224748,0.091540225,inf,inf,inf,inf,1,1,1,1,2,0,2,1,5,1,1,1
425006275,15154129,-33.9385715,18.8741563,-2.103866,0.35700414,0.17683786,-0.23954648,0.1367903,0.0,-0.057847414,-0.0038744316,0.015014142,-0.054339793,-1.5294534,0.020032808,-0.32580173,-0.4022734,-0.50822383,0.5208902,3.0846972,-0.25554916,131.77486,0.1,0.29146048,0.4351838,0.13341457,0.08981783,inf,inf,inf,inf,1,1,1,1,2,0,2,1,5,1,1,1
425016280,15154129,-33.9385715,18.8741563,-2.1044497,0.35671884,0.17628244,-0.23954648,0.1367903,0.0,-0.057032283,-0.0048335367,0.014726147,-0.05458486,-1.5294534,0.020032808,-0.32580173,-0.28698266,-0.16647597,0.39258707,3.0840805,-0.25554916,131.77486,0.1,0.29227814,0.43573564,0.13382752,0.08994078,inf,inf,inf,inf,1,1,1,1,2,0,2,1,5,1,1,1
425026285,15154129,-33.9385715,18.8741563,-2.105017,0.35642695,0.17556405,-0.23954648,0.1367903,0.0,-0.05505443,-0.005347884,0.015232622,-0.054207083,-1.5294534,0.020032808,-0.32580173,-0.15549783,0.16930424,0.27323344,3.0834506,-0.25554916,131.77486,0.1,0.29310083,0.43293822,0.13424148,0.08980246,inf,inf,inf,inf,1,1,1,1,2,0,2,1,5,1,1,1
425036290,15154129,-33.9385715,18.8741563,-2.1055682,0.35612786,0.17488787,-0.23954648,0.1367903,0.0,-0.05244805,-0.0054833526,0.015772944,-0.05376123,-1.5294534,0.020032808,-0.32580173,0.28117085,0.6786216,0.1310395,3.0827148,-0.25554916,131.77486,0.1,0.29392856,0.43348855,0.13465765,0.08992526,inf,inf,inf,inf,1,1,1,1,2,0,2,1,5,1,1,1
425046293,15154129,-33.9385715,18.8741563,-2.106096,0.35582507,0.1742503,-0.23954648,0.1367903,0.0,-0.04897893,-0.0054754117,0.01697316,-0.052623134,-1.5294534,0.020032808,-0.32580173,0.72325325,1.1287894,0.2583295,3.081858,-0.25554916,131.77486,0.1,0.2947614,0.43404037,0.13507651,0.090048164,inf,inf,inf,inf,1,1,1,1,2,0,2,1,5,1,1,1
425056298,15154129,-33.9385715,18.8741563,-2.106598,0.35551968,0.17365737,-0.23954648,0.1367903,0.0,-0.04654717,-0.0066762967,0.018282864,-0.051344685,-1.5294534,0.020032808,-0.32580173,0.8410443,1.1843891,0.1932838,3.0808537,-0.25554916,131.77486,0.1,0.2955993,0.4345935,0.13550054,0.090171,inf,inf,inf,inf,1,1,1,1,2,0,2,1,5,1,1,1
425066303,15154129,-33.9385715,18.8741563,-2.107069,0.35521457,0.1731161,-0.23954648,0.1367903,0.0,-0.04387128,-0.007975439,0.020193163,-0.04943606,-1.5294534,0.020032808,-0.32580173,0.7534402,0.9721744,-0.00867861,3.079659,-0.25554916,131.77486,0.1,0.29644233,0.43514812,0.13592362,0.090294,inf,inf,inf,inf,1,1,1,1,2,0,2,1,5,1,1,1
425076307,15154129,-33.9385715,18.8741563,-2.1075091,0.35490912,0.17263038,-0.23954648,0.1367903,0.0,-0.041481104,-0.010658354,0.023025589,-0.0465759,-1.5294534,0.020032808,-0.32580173,0.59129596,0.34999892,-0.033962153,3.0782206,-0.25554916,131.77486,0.1,0.2972905,0.43570408,0.13634881,0.09041699,inf,inf,inf,inf,1,1,1,1,2,0,2,1,5,1,1,1
425086361,15154129,-33.9385715,18.8741563,-2.107925,0.3545932,0.17220888,-0.23954648,0.1367903,0.0,-0.039112106,-0.013994803,0.02765883,-0.041887924,-1.5294534,0.020032808,-0.32580173,0.5810734,-0.22436626,0.191634,3.076647,-0.25554916,131.77486,0.1,0.29814383,0.43626156,0.1367746,0.09054015,inf,inf,inf,inf,1,1,1,1,2,0,2,1,5,1,1,1
425096333,15154129,-33.9385715,18.8741563,-2.108314,0.35425898,0.17185189,-0.23954648,0.1367903,0.0,-0.037928347,-0.018275375,0.03191804,-0.03754732,-1.5294534,0.020032808,-0.32580173,0.31719032,-0.7946455,0.31867006,3.0752625,-0.25554916,131.77486,0.1,0.2990023,0.43682033,0.13719831,0.090663254,inf,inf,inf,inf,1,1,1,1,2,0,2,1,5,1,1,1
425106323,15154129,-33.9385715,18.8741563,-2.1086886,0.35389695,0.17156103,-0.23954648,0.1367903,0.0,-0.037521314,-0.023216072,0.036264528,-0.03309485,-1.5294534,0.020032808,-0.32580173,0.025373485,-1.3348912,0.40823373,3.074285,-0.25554916,131.77486,0.1,0.2998659,0.43738064,0.13762389,0.09078646,inf,inf,inf,inf,1,1,1,1,2,0,2,1,5,1,1,1
425116323,15154129,-33.9385715,18.8741563,-2.109049,0.3535045,0.17109367,-0.23954648,0.1367903,0.0,-0.037210226,-0.027643299,0.039752,-0.029721146,-1.5294534,0.020032808,-0.32580173,-0.3550143,-1.702309,0.27692655,3.073729,-0.25554916,131.77486,0.1,0.3007347,0.43455374,0.13804755,0.09064089,inf,inf,inf,inf,1,1,1,1,2,0,2,1,5,1,1,1
425126328,15154129,-33.9385715,18.8741563,-2.1093981,0.3530867,0.1706891,-0.23954648,0.1367903,0.0,-0.036626942,-0.0304837,0.042473163,-0.027080247,-1.5294534,0.020032808,-0.32580173,-0.5458137,-1.7656721,0.21845132,3.073445,-0.25554916,131.77486,0.1,0.30160862,0.43511245,0.13847329,0.090763934,inf,inf,inf,inf,1,1,1,1,2,0,2,1,5,1,1,1
425136333,15154129,-33.9385715,18.8741563,-2.109735,0.35265198,0.17033653,-0.23954648,0.1367903,0.0,-0.034925807,-0.031308066,0.04479899,-0.024802985,-1.5294534,0.020032808,-0.32580173,-0.42711398,-1.41593,0.33699778,3.073302,-0.25554916,131.77486,0.1,0.30248776,0.43567267,0.13890098,0.090886995,inf,inf,inf,inf,1,1,1,1,2,0,2,1,5,1,1,1
425146337,15154129,-33.9385715,18.8741563,-2.1100595,0.35220638,0.17002986,-0.23954648,0.1367903,0.0,-0.03344656,-0.031642165,0.046714883,-0.02290605,-1.5294534,0.020032808,-0.32580173,-0.27161565,-0.9706666,0.45947805,3.0731947,-0.25554916,131.77486,0.1,0.30337209,0.43623418,0.1393323,0.09100978,inf,inf,inf,inf,1,1,1,1,2,0,2,1,5,1,1,1
425156341,15154129,-33.9385715,18.8741563,-2.110371,0.35174495,0.1697691,-0.23954648,0.1367903,0.0,-0.031554956,-0.032323584,0.048311807,-0.021299174,-1.5294534,0.020032808,-0.32580173,-0.05711015,-0.4040636,0.44600534,3.0731313,-0.25554916,131.77486,0.1,0.30426165,0.43679726,0.13976097,0.09113261,inf,inf,inf,inf,1,1,1,1,2,0,2,1,5,1,1,1
425166346,15154129,-33.9385715,18.8741563,-2.1106722,0.35126248,0.16955109,-0.23954648,0.1367903,0.0,-0.030895835,-0.033484977,0.049472924,-0.020101767,-1.5294534,0.020032808,-0.32580173,-0.077390805,0.20494086,0.30469826,3.0732107,-0.25554916,131.77486,0.1,0.3051564,0.43736166,0.1401927,0.09125529,inf,inf,inf,inf,1,1,1,1,2,0,2,1,5,1,1,1
425176350,15154129,-33.9385715,18.8741563,-2.1109648,0.35075337,0.16938105,-0.23954648,0.1367903,0.0,-0.029262386,-0.03523837,0.051833324,-0.017678471,-1.5294534,0.020032808,-0.32580173,0.15117943,0.8122117,0.29114735,3.073573,-0.25554916,131.77486,0.1,0.3060564,0.43792757,0.14063007,0.09137816,inf,inf,inf,inf,1,1,1,1,2,0,2,1,5,1,1,1
425186354,15154129,-33.9385715,18.8741563,-2.1112518,0.3502197,0.16926137,-0.23954648,0.1367903,0.0,-0.028786656,-0.037048317,0.05439159,-0.015032799,-1.5294534,0.020032808,-0.32580173,0.25199246,1.2776179,0.29258475,3.0743513,-0.25554916,131.77486,0.1,0.30696166,0.4384948,0.14107372,0.091500975,inf,inf,inf,inf,1,1,1,1,2,0,2,1,5,1,1,1
425196359,15154129,-33.9385715,18.8741563,-2.1115396,0.34966347,0.16893029,-0.23954648,0.1367903,0.0,-0.027549792,-0.039467268,0.05605528,-0.0135167055,-1.5294534,0.020032808,-0.32580173,0.7104953,1.4780726,0.2321631,3.0755327,-0.25554916,131.77486,0.1,0.3078722,0.43564913,0.14151514,0.091349155,inf,inf,inf,inf,1,1,1,1,2,0,2,1,5,1,1,1
425206407,15154129,-33.9385715,18.8741563,-2.111822,0.3490892,0.16864268,-0.23954648,0.1367903,0.0,-0.027248038,-0.041940823,0.055476457,-0.014208468,-1.5294534,0.020032808,-0.32580173,0.6879934,1.3383782,-0.09607392,3.0769534,-0.25554916,131.77486,0.1,0.3087881,0.43621492,0.1419572,0.0914722,inf,inf,inf,inf,1,1,1,1,2,0,2,1,5,1,1,1
425216385,15154129,-33.9385715,18.8741563,-2.112539,0.3478941,0.16836187,-0.23954648,0.1367903,0.0,-0.027234007,-0.04486882,0.05389964,-0.015878301,-1.5294534,0.020032808,-0.32580173,0.56217706,0.9082374,-0.2970982,3.0783377,-0.25554916,131.77486,0.1,0.29240963,0.43342644,0.13314432,0.08975388,inf,inf,inf,inf,1,1,1,1,2,0,2,1,5,1,1,1
425226376,15154129,-33.9385715,18.8741563,-2.1132264,0.3467082,0.16810116,-0.23954648,0.1367903,0.0,-0.026215216,-0.048126146,0.052467622,-0.017370978,-1.5294534,0.020032808,-0.32580173,0.25727645,0.20756786,-0.4112909,3.0795357,-0.25554916,131.77486,0.1,0.29323104,0.4339767,0.13357155,0.089877196,inf,inf,inf,inf,1,1,1,1,2,0,2,1,5,1,1,1
425236376,15154129,-33.9385715,18.8741563,-2.1138856,0.34552947,0.16785514,-0.23954648,0.1367903,0.0,-0.024713676,-0.051565357,0.051421557,-0.018446572,-1.5294534,0.020032808,-0.32580173,0.25652903,-0.5359164,-0.23601398,3.0804546,-0.25554916,131.77486,0.1,0.2940575,0.4345283,0.13399747,0.0900004,inf,inf,inf,inf,1,1,1,1,2,0,2,1,5,1,1,1
425246380,15154129,-33.9385715,18.8741563,-2.114509,0.34435865,0.16762647,-0.23954648,0.1367903,0.0,-0.022146441,-0.054546766,0.050762843,-0.019105207,-1.5294534,0.020032808,-0.32580173,0.2798494,-1.2298913,-0.07642156,3.0812075,-0.25554916,131.77486,0.1,0.29488903,0.4350814,0.13442098,0.09012378,inf,inf,inf,inf,1,1,1,1,2,0,2,1,5,1,1,1
425256385,15154129,-33.9385715,18.8741563,-2.1150985,0.3431936,0.16741745,-0.23954648,0.1367903,0.0,-0.021038534,-0.057376627,0.050048165,-0.019791039,-1.5294534,0.020032808,-0.32580173,0.027853247,-1.7951823,-0.022756975,3.08189,-0.25554916,131.77486,0.1,0.29572558,0.4356358,0.13484068,0.090247065,inf,inf,inf,inf,1,1,1,1,2,0,2,1,5,1,1,1
425266389,15154129,-33.9385715,18.8741563,-2.1156552,0.34202993,0.16722831,-0.23954648,0.1367903,0.0,-0.019791717,-0.05932795,0.049201205,-0.020582205,-1.5294534,0.020032808,-0.32580173,-0.28060645,-1.9472891,-0.066615306,3.082605,-0.25554916,131.77486,0.1,0.2965672,0.43619174,0.13525973,0.09037044,inf,inf,inf,inf,1,1,1,1,2,0,2,1,5,1,1,1
425276393,15154129,-33.9385715,18.8741563,-2.1161811,0.3408697,0.16705489,-0.23954648,0.1367903,0.0,-0.018300725,-0.059793334,0.04799803,-0.021703651,-1.5294534,0.020032808,-0.32580173,-0.46531674,-1.700128,-0.09294745,3.083358,-0.25554916,131.77486,0.1,0.29741386,0.43674898,0.13567987,0.09049368,inf,inf,inf,inf,1,1,1,1,2,0,2,1,5,1,1,1
425286398,15154129,-33.9385715,18.8741563,-2.11668,0.33971977,0.1666055,-0.23954648,0.1367903,0.0,-0.015895283,-0.058521945,0.046650566,-0.023233596,-1.5294534,0.020032808,-0.32580173,-0.23103595,-1.0928272,-0.021414772,3.0841005,-0.25554916,131.77486,0.1,0.29826558,0.43393373,0.13610402,0.090351,inf,inf,inf,inf,1,1,1,1,2,0,2,1,5,1,1,1
425296403,15154129,-33.9385715,18.8741563,-2.1171515,0.338584,0.166167,-0.23954648,0.1367903,0.0,-0.013613835,-0.056838285,0.04394059,-0.026089732,-1.5294534,0.020032808,-0.32580173,0.011446291,-0.37954614,-0.03554642,3.0847144,-0.25554916,131.77486,0.1,0.29912236,0.43448958,0.13653173,0.09047428,inf,inf,inf,inf,1,1,1,1,2,0,2,1,5,1,1,1
425306456,15154129,-33.9385715,18.8741563,-2.1175969,0.33746472,0.16573958,-0.23954648,0.1367903,0.0,-0.011634062,-0.054502573,0.0417175,-0.028423777,-1.5294534,0.020032808,-0.32580173,0.16141203,0.348743,0.0077074184,3.085192,-0.25554916,131.77486,0.1,0.29998425,0.43504676,0.13696146,0.0905973,inf,inf,inf,inf,1,1,1,1,2,0,2,1,5,1,1,1
425316416,15154129,-33.9385715,18.8741563,-2.1180143,0.3363701,0.16532287,-0.23954648,0.1367903,0.0,-0.010196501,-0.052597556,0.03973533,-0.030483613,-1.5294534,0.020032808,-0.32580173,0.121976905,1.0056118,-0.10209747,3.0855126,-0.25554916,131.77486,0.1,0.3008513,0.43560544,0.13739337,0.09072038,inf,inf,inf,inf,1,1,1,1,2,0,2,1,5,1,1,1
425326415,15154129,-33.9385715,18.8741563,-2.1184084,0.33528462,0.1649241,-0.23954648,0.1367903,0.0,-0.008128021,-0.05164802,0.03818677,-0.032078028,-1.5294534,0.020032808,-0.32580173,0.31093234,1.6499159,-0.17680171,3.0857594,-0.25554916,131.77486,0.1,0.30172345,0.43616545,0.13782719,0.090843365,inf,inf,inf,inf,1,1,1,1,2,0,2,1,5,1,1,1
425336420,15154129,-33.9385715,18.8741563,-2.1187818,0.33421168,0.16454038,-0.23954648,0.1367903,0.0,-0.00648475,-0.0519421,0.0367114,-0.03356877,-1.5294534,0.020032808,-0.32580173,0.56084,1.7704093,-0.16933444,3.0860407,-0.25554916,131.77486,0.1,0.30260077,0.43672702,0.13826345,0.090966426,inf,inf,inf,inf,1,1,1,1,2,0,2,1,5,1,1,1
425346424,15154129,-33.9385715,18.8741563,-2.1191423,0.33314434,0.16417217,-0.23954648,0.1367903,0.0,-0.006592649,-0.053904887,0.0356507,-0.034615606,-1.5294534,0.020032808,-0.32580173,0.5385669,1.5653346,-0.10404828,3.0865,-0.25554916,131.77486,0.1,0.30348325,0.43728986,0.13869615,0.09108943,inf,inf,inf,inf,1,1,1,1,2,0,2,1,5,1,1,1
425356429,15154129,-33.9385715,18.8741563,-2.1194968,0.33208266,0.1638219,-0.23954648,0.1367903,0.0,-0.0078587355,-0.055835865,0.03385933,-0.03636525,-1.5294534,0.020032808,-0.32580173,0.2754932,1.1908045,-0.35484865,3.0871866,-0.25554916,131.77486,0.1,0.30437088,0.43785426,0.13912895,0.091212444,inf,inf,inf,inf,1,1,1,1,2,0,2,1,5,1,1,1
425366433,15154129,-33.9385715,18.8741563,-2.119848,0.33103263,0.16347994,-0.23954648,0.1367903,0.0,-0.008728301,-0.057854787,0.03202965,-0.038127486,-1.5294534,0.020032808,-0.32580173,0.1255996,0.5537159,-0.3799992,3.0880868,-0.25554916,131.77486,0.1,0.30526373,0.43841997,0.13956563,0.09133542,inf,inf,inf,inf,1,1,1,1,2,0,2,1,5,1,1,1
425376438,15154129,-33.9385715,18.8741563,-2.1201942,0.3300069,0.16284133,-0.23954648,0.1367903,0.0,-0.00898532,-0.0574216,0.030641181,-0.03973208,-1.5294534,0.020032808,-0.32580173,0.1092928,0.104464926,-0.3366054,3.0890245,-0.25554916,131.77486,0.1,0.30616173,0.43557447,0.14001279,0.091184825,inf,inf,inf,inf,1,1,1,1,2,0,2,1,5,1,1,1
425386442,15154129,-33.9385715,18.8741563,-2.1205342,0.32902345,0.16222104,-0.23954648,0.1367903,0.0,-0.009225983,-0.05603812,0.029305393,-0.041246064,-1.5294534,0.020032808,-0.32580173,0.09383934,-0.57177174,-0.18872021,3.0898197,-0.25554916,131.77486,0.1,0.307065,0.43613875,0.14046192,0.091308,inf,inf,inf,inf,1,1,1,1,2,0,2,1,5,1,1,1
425396446,15154129,-33.9385715,18.8741563,-2.1208634,0.32808954,0.16161832,-0.23954648,0.1367903,0.0,-0.00961279,-0.052793495,0.028106768,-0.042587828,-1.5294534,0.020032808,-0.32580173,-0.15799703,-0.918232,-0.068374425,3.0902994,-0.25554916,131.77486,0.1,0.30797356,0.43670434,0.14091182,0.091431126,inf,inf,inf,inf,1,1,1,1,2,0,2,1,5,1,1,1
425406451,15154129,-33.9385715,18.8741563,-2.121183,0.32721722,0.16103317,-0.23954648,0.1367903,0.0,-0.009772862,-0.048129626,0.02661955,-0.04418328,-1.5294534,0.020032808,-0.32580173,-0.34632125,-1.1887003,-0.011476239,3.0904067,-0.25554916,131.77486,0.1,0.30888736,0.43727148,0.14136147,0.0915544,inf,inf,inf,inf,1,1,1,1,2,0,2,1,5,1,1,1
425416455,15154129,-33.9385715,18.8741563,-2.1214917,0.32601267,0.16040245,-0.23954648,0.1367903,0.0,-0.009671719,-0.04350663,0.025634626,-0.045309983,-1.5294534,0.020032808,-0.32580173,-0.52094364,-1.3174027,0.0460401,3.090229,-0.25554916,131.77486,0.1,0.2924916,0.43446052,0.1326367,0.08983112,inf,inf,inf,inf,1,1,1,1,2,0,2,1,5,1,1,1
425426460,15154129,-33.9385715,18.8741563,-2.121792,0.32486907,0.15979864,-0.23954648,0.1367903,0.0,-0.009187857,-0.038558666,0.025300778,-0.045750674,-1.5294534,0.020032808,-0.32580173,-0.39005315,-0.9262955,0.09905994,3.089893,-0.25554916,131.77486,0.1,0.2933117,0.43501207,0.13307302,0.08995451,inf,inf,inf,inf,1,1,1,1,2,0,2,1,5,1,1,1
425436464,15154129,-33.9385715,18.8741563,-2.1220834,0.32378164,0.15922385,-0.23954648,0.1367903,0.0,-0.008407052,-0.03324198,0.025374236,-0.04575065,-1.5294534,0.020032808,-0.32580173,-0.18547736,-0.23432419,0.20323588,3.089621,-0.25554916,131.77486,0.1,0.2941368,0.43556494,0.13351053,0.090077706,inf,inf,inf,inf,1,1,1,1,2,0,2,1,5,1,1,1
425446468,15154129,-33.9385715,18.8741563,-2.1223629,0.32274592,0.15867813,-0.23954648,0.1367903,0.0,-0.0076683275,-0.028635459,0.025153128,-0.04601317,-1.5294534,0.020032808,-0.32580173,-0.0908968,0.43600655,0.21746378,3.089454,-0.25554916,131.77486,0.1,0.29496697,0.4361193,0.13394998,0.09020088,inf,inf,inf,inf,1,1,1,1,2,0,2,1,5,1,1,1
425456473,15154129,-33.9385715,18.8741563,-2.1226304,0.32175606,0.15792336,-0.23954648,0.1367903,0.0,-0.0068256287,-0.024815125,0.024622954,-0.046792705,-1.5294534,0.020032808,-0.32580173,0.027347682,1.0299631,0.13757943,3.0894325,-0.25554916,131.77486,0.1,0.29580218,0.4333155,0.13439049,0.09006058,inf,inf,inf,inf,1,1,1,1,2,0,2,1,5,1,1,1
425466477,15154129,-33.9385715,18.8741563,-2.122888,0.32080632,0.15720014,-0.23954648,0.1367903,0.0,-0.006452331,-0.0222594,0.023173008,-0.04845216,-1.5294534,0.020032808,-0.32580173,0.10419597,1.3959644,-0.12511845,3.0896287,-0.25554916,131.77486,0.1,0.29664248,0.43386838,0.13483664,0.09018373,inf,inf,inf,inf,1,1,1,1,2,0,2,1,5,1,1,1
425476481,15154129,-33.9385715,18.8741563,-2.1231391,0.31989,0.15649952,-0.23954648,0.1367903,0.0,-0.0058699735,-0.020284327,0.021266256,-0.05053011,-1.5294534,0.020032808,-0.32580173,0.31802863,1.728223,-0.3115304,3.0900836,-0.25554916,131.77486,0.1,0.29748788,0.43442273,0.13528357,0.09030679,inf,inf,inf,inf,1,1,1,1,2,0,2,1,5,1,1,1
425486486,15154129,-33.9385715,18.8741563,-2.1233802,0.3190042,0.15581888,-0.23954648,0.1367903,0.0,-0.005456747,-0.019394783,0.019930625,-0.05200023,-1.5294534,0.020032808,-0.32580173,0.36461186,1.7958065,-0.3065395,3.0908074,-0.25554916,131.77486,0.1,0.2983384,0.43497837,0.1357273,0.09042971,inf,inf,inf,inf,1,1,1,1,2,0,2,1,5,1,1,1
425496490,15154129,-33.9385715,18.8741563,-2.123614,0.31815046,0.15515675,-0.23954648,0.1367903,0.0,-0.005475776,-0.018885532,0.01859112,-0.053439222,-1.5294534,0.020032808,-0.32580173,0.38600123,1.5888737,-0.25411314,3.091744,-0.25554916,131.77486,0.1,0.29919407,0.43553552,0.13617177,0.09055284,inf,inf,inf,inf,1,1,1,1,2,0,2,1,5,1,1,1
425506494,15154129,-33.9385715,18.8741563,-2.1238394,0.3173371,0.15451585,-0.23954648,0.1367903,0.0,-0.0055017853,-0.0183534,0.017641718,-0.05445455,-1.5294534,0.020032808,-0.32580173,0.29973847,0.9994866,-0.23860276,3.0927575,-0.25554916,131.77486,0.1,0.30005485,0.436094,0.1366171,0.09067591,inf,inf,inf,inf,1,1,1,1,2,0,2,1,5,1,1,1
425516553,15154129,-33.9385715,18.8741563,-2.1240633,0.31656742,0.1538944,-0.23954648,0.1367903,0.0,-0.006855019,-0.017679794,0.015819598,-0.056310505,-1.5294534,0.020032808,-0.32580173,0.08235696,0.2522094,-0.37827098,3.093728,-0.25554916,131.77486,0.1,0.30092078,0.436654,0.13706185,0.090799116,inf,inf,inf,inf,1,1,1,1,2,0,2,1,5,1,1,1
425526510,15154129,-33.9385715,18.8741563,-2.1242914,0.31584322,0.15328589,-0.23954648,0.1367903,0.0,-0.008712942,-0.016695336,0.014705043,-0.05742774,-1.5294534,0.020032808,-0.32580173,-0.14517066,-0.38867387,-0.28010648,3.09455,-0.25554916,131.77486,0.1,0.30179185,0.43721533,0.13751005,0.090922125,inf,inf,inf,inf,1,1,1,1,2,0,2,1,5,1,1,1
425536508,15154129,-33.9385715,18.8741563,-2.1245296,0.31516004,0.15269075,-0.23954648,0.1367903,0.0,-0.010745826,-0.01516053,0.013039332,-0.059066795,-1.5294534,0.020032808,-0.32580173,-0.32093143,-0.7906022,-0.25198033,3.0952408,-0.25554916,131.77486,0.1,0.30266812,0.43777817,0.13795921,0.09104525,inf,inf,inf,inf,1,1,1,1,2,0,2,1,5,1,1,1
425546513,15154129,-33.9385715,18.8741563,-2.1247804,0.3145152,0.15187863,-0.23954648,0.1367903,0.0,-0.012324727,-0.01384687,0.010761556,-0.061508566,-1.5294534,0.020032808,-0.32580173,-0.26578173,-1.127775,0.01863218,3.0958252,-0.25554916,131.77486,0.1,0.3035496,0.4349445,0.13840728,0.0908972,inf,inf,inf,inf,1,1,1,1,2,0,2,1,5,1,1,1
425556516,15154129,-33.9385715,18.8741563,-2.1250408,0.31390947,0.15107581,-0.23954648,0.1367903,0.0,-0.0140431095,-0.01128936,0.00827385,-0.06412382,-1.5294534,0.020032808,-0.32580173,-0.34313387,-1.189814,0.046515997,3.0962598,-0.25554916,131.77486,0.1,0.30443624,0.4355058,0.13885589,0.09102016,inf,inf,inf,inf,1,1,1,1,2,0,2,1,5,1,1,1
425566520,15154129,-33.9385715,18.8741563,-2.1253061,0.3133427,0.15028597,-0.23954648,0.1367903,0.0,-0.015241345,-0.0085622305,0.006422052,-0.066068254,-1.5294534,0.020032808,-0.32580173,-0.45718107,-1.1128303,0.05539428,3.0965784,-0.25554916,131.77486,0.1,0.3053281,0.43606856,0.13930471,0.09114294,inf,inf,inf,inf,1,1,1,1,2,0,2,1,5,1,1,1
425576526,15154129,-33.9385715,18.8741563,-2.1255748,0.3128033,0.14951482,-0.23954648,0.1367903,0.0,-0.016166657,-0.0057762796,0.0052950345,-0.06725414,-1.5294534,0.020032808,-0.32580173,-0.5339536,-0.574937,0.08866888,3.096805,-0.25554916,131.77486,0.1,0.30622515,0.43663263,0.13975531,0.09126549,inf,inf,inf,inf,1,1,1,1,2,0,2,1,5,1,1,1
425586530,15154129,-33.9385715,18.8741563,-2.1258454,0.3122859,0.1487635,-0.23954648,0.1367903,0.0,-0.01576513,-0.0037866372,0.004612785,-0.067963295,-1.5294534,0.020032808,-0.32580173,-0.24166694,-0.07253537,0.22203025,3.0970273,-0.25554916,131.77486,0.1,0.30712745,0.43719825,0.14020482,0.09138813,inf,inf,inf,inf,1,1,1,1,2,0,2,1,5,1,1,1
425596533,15154129,-33.9385715,18.8741563,-2.126112,0.31177852,0.14803225,-0.23954648,0.1367903,0.0,-0.015355969,-0.002987372,0.0029912589,-0.06958158,-1.5294534,0.020032808,-0.32580173,-0.06703725,0.47760466,0.04887857,3.0972817,-0.25554916,131.77486,0.1,0.308035,0.43776518,0.14065279,0.09151063,inf,inf,inf,inf,1,1,1,1,2,0,2,1,5,1,1,1
425606538,15154129,-33.9385715,18.8741563,-2.126376,0.31127694,0.14731596,-0.23954648,0.1367903,0.0,-0.01540469,-0.0031009705,0.0014786475,-0.07106171,-1.5294534,0.020032808,-0.32580173,0.034230568,0.812616,-0.002341011,3.0975668,-0.25554916,131.77486,0.1,0.30894777,0.43833366,0.14110005,0.0916332,inf,inf,inf,inf,1,1,1,1,2,0,2,1,5,1,1,1
425616543,15154129,-33.9385715,18.8741563,-2.1267838,0.31078961,0.14643763,-0.23954648,0.1367903,0.0,-0.015213213,-0.0038915493,0.00038546725,-0.07228457,-1.5294534,0.020032808,-0.32580173,0.06280171,1.0279751,-0.2518178,3.0979114,-0.25554916,131.77486,0.1,0.29253,0.43550003,0.13240844,0.08990463,inf,inf,inf,inf,1,1,1,1,2,0,2,1,5,1,1,1
425626547,15154129,-33.9385715,18.8741563,-2.1271844,0.31030098,0.14558078,-0.23954648,0.1367903,0.0,-0.015327967,-0.005478457,-0.0013734649,-0.07413814,-1.5294534,0.020032808,-0.32580173,0.1260374,1.086096,-0.4229945,3.0982354,-0.25554916,131.77486,0.1,0.29334933,0.43605286,0.13284571,0.09002754,inf,inf,inf,inf,1,1,1,1,2,0,2,1,5,1,1,1
425636552,15154129,-33.9385715,18.8741563,-2.1275735,0.30981246,0.14461507,-0.23954648,0.1367903,0.0,-0.014615388,-0.0069081727,-0.00207961,-0.075038016,-1.5294534,0.020032808,-0.32580173,0.24808173,1.0643431,-0.43930295,3.0984564,-0.25554916,131.77486,0.1,0.29417363,0.43324906,0.13328706,0.089888185,inf,inf,inf,inf,1,1,1,1,2,0,2,1,5,1,1,1
425646556,15154129,-33.9385715,18.8741563,-2.1279545,0.30932885,0.14367552,-0.23954648,0.1367903,0.0,-0.014515601,-0.008599975,-0.003049281,-0.07616345,-1.5294534,0.020032808,-0.32580173,0.3881008,0.7855705,-0.44067195,3.0985417,-0.25554916,131.77486,0.1,0.29500297,0.43380043,0.13373089,0.09001131,inf,inf,inf,inf,1,1,1,1,2,0,2,1,5,1,1,1
425656563,15154129,-33.9385715,18.8741563,-2.1283233,0.30885625,0.14276032,-0.23954648,0.1367903,0.0,-0.014045566,-0.009681649,-0.0036628905,-0.07689643,-1.5294534,0.020032808,-0.32580173,0.41610974,0.40864086,-0.33895704,3.0984278,-0.25554916,131.77486,0.1,0.29583734,0.4343532,0.1341736,0.09013447,inf,inf,inf,inf,1,1,1,1,2,0,2,1,5,1,1,1
425666597,15154129,-33.9385715,18.8741563,-2.1286771,0.30840307,0.14186692,-0.23954648,0.1367903,0.0,-0.013661862,-0.010564453,-0.004946178,-0.07826422,-1.5294534,0.020032808,-0.32580173,0.30430603,-0.21665536,-0.34923193,3.0980756,-0.25554916,131.77486,0.1,0.29667678,0.4349073,0.13461712,0.09025749,inf,inf,inf,inf,1,1,1,1,2,0,2,1,5,1,1,1
425676577,15154129,-33.9385715,18.8741563,-2.1290114,0.30796468,0.14099525,-0.23954648,0.1367903,0.0,-0.012342386,-0.011637105,-0.005340685,-0.078709885,-1.5294534,0.020032808,-0.32580173,0.33320963,-0.7001961,-0.1916466,3.0974827,-0.25554916,131.77486,0.1,0.29752132,0.43546292,0.13506009,0.09038057,inf,inf,inf,inf,1,1,1,1,2,0,2,1,5,1,1,1
425686573,15154129,-33.9385715,18.8741563,-2.1293209,0.3075384,0.14014894,-0.23954648,0.1367903,0.0,-0.011053346,-0.011612294,-0.0051020966,-0.07849014,-1.5294534,0.020032808,-0.32580173,0.15908174,-0.8370133,0.048745643,3.0966773,-0.25554916,131.77486,0.1,0.2983709,0.43601984,0.1355089,0.090503454,inf,inf,inf,inf,1,1,1,1,2,0,2,1,5,1,1,1
425696578,15154129,-33.9385715,18.8741563,-2.1296058,0.30712098,0.13933694,-0.23954648,0.1367903,0.0,-0.0092310505,-0.012199631,-0.0030412409,-0.07641776,-1.5294534,0.020032808,-0.32580173,0.13745214,-0.95415074,0.4969288,3.0957181,-0.25554916,131.77486,0.1,0.29922563,0.4365783,0.13595244,0.09062634,inf,inf,inf,inf,1,1,1,1,2,0,2,1,5,1,1,1
425706582,15154129,-33.9385715,18.8741563,-2.1298616,0.3067073,0.13857412,-0.23954648,0.1367903,0.0,-0.0075008585,-0.012209051,-0.00033636997,-0.07367177,-1.5294534,0.020032808,-0.32580173,-0.040923968,-0.7807126,0.7065942,3.0947547,-0.25554916,131.77486,0.1,0.30008543,0.43713805,0.1364002,0.09074905,inf,inf,inf,inf,1,1,1,1,2,0,2,1,5,1,1,1
425716587,15154129,-33.9385715,18.8741563,-2.1300929,0.30629966,0.13759337,-0.23954648,0.1367903,0.0,-0.0061040204,-0.0122418115,0.0024815255,-0.07105791,-1.5294534,0.020032808,-0.32580173,-0.15430443,-0.66441065,0.83294505,3.093951,-0.25554916,131.77486,0.1,0.30095038,0.43431634,0.13685113,0.090603806,inf,inf,inf,inf,1,1,1,1,2,0,2,1,5,1,1,1
425726591,15154129,-33.9385715,18.8741563,-2.1303024,0.3058968,0.13667643,-0.23954648,0.1367903,0.0,-0.004626406,-0.012092986,0.004842438,-0.06886236,-1.5294534,0.020032808,-0.32580173,-0.1844936,-0.4677897,0.72607535,3.0933266,-0.25554916,131.77486,0.1,0.3018205,0.43487456,0.1373036,0.09072655,inf,inf,inf,inf,1,1,1,1,2,0,2,1,5,1,1,1
425736620,15154129,-33.9385715,18.8741563,-2.1304924,0.3054986,0.13581689,-0.23954648,0.1367903,0.0,-0.003711431,-0.012210622,0.0063952203,-0.06743788,-1.5294534,0.020032808,-0.32580173,-0.31032252,-0.34970388,0.5418049,3.092915,-0.25554916,131.77486,0.1,0.30269575,0.43543437,0.13775463,0.09084938,inf,inf,inf,inf,1,1,1,1,2,0,2,1,5,1,1,1
425746604,15154129,-33.9385715,18.8741563,-2.1306708,0.30509776,0.13500088,-0.23954648,0.1367903,0.0,-0.0034846722,-0.013450151,0.0062729777,-0.067652926,-1.5294534,0.020032808,-0.32580173,-0.37645864,-0.25137058,0.25934386,3.0927274,-0.25554916,131.77486,0.1,0.3035762,0.43599558,0.13820395,0.090972185,inf,inf,inf,inf,1,1,1,1,2,0,2,1,5,1,1,1
425756604,15154129,-33.9385715,18.8741563,-2.1308403,0.30468914,0.13421902,-0.23954648,0.1367903,0.0,-0.0030231734,-0.014809482,0.0061737606,-0.06781106,-1.5294534,0.020032808,-0.32580173,-0.35050315,-0.11340535,0.16111416,3.0927618,-0.25554916,131.77486,0.1,0.3044618,0.43655813,0.1386524,0.09109499,inf,inf,inf,inf,1,1,1,1,2,0,2,1,5,1,1,1
425766608,15154129,-33.9385715,18.8741563,-2.131001,0.30427727,0.13346812,-0.23954648,0.1367903,0.0,-0.0026682334,-0.016158028,0.0054018563,-0.06860936,-1.5294534,0.020032808,-0.32580173,-0.32770333,-0.14327836,-0.05861826,3.093024,-0.25554916,131.77486,0.1,0.3053526,0.4371222,0.13910508,0.09121797,inf,inf,inf,inf,1,1,1,1,2,0,2,1,5,1,1,1
425776612,15154129,-33.9385715,18.8741563,-2.1311471,0.30387294,0.13274972,-0.23954648,0.1367903,0.0,-0.0016092876,-0.015342838,0.005415075,-0.068591096,-1.5294534,0.020032808,-0.32580173,-0.31255215,0.050558835,-0.2043505,3.093281,-0.25554916,131.77486,0.1,0.30624864,0.43768758,0.13955827,0.09134085,inf,inf,inf,inf,1,1,1,1,2,0,2,1,5,1,1,1
425786617,15154129,-33.9385715,18.8741563,-2.1312783,0.30349004,0.1320656,-0.23954648,0.1367903,0.0,-0.0010105936,-0.014452466,0.0055832025,-0.06838819,-1.5294534,0.020032808,-0.32580173,-0.41768435,-0.06745683,-0.36413625,3.093366,-0.25554916,131.77486,0.1,0.30714983,0.43825448,0.14001052,0.09146387,inf,inf,inf,inf,1,1,1,1,2,0,2,1,5,1,1,1
425796621,15154129,-33.9385715,18.8741563,-2.131396,0.30312473,0.13141455,-0.23954648,0.1367903,0.0,-0.00015987863,-0.013907803,0.0056657684,-0.06824256,-1.5294534,0.020032808,-0.32580173,-0.41585097,-0.13330314,-0.536168,3.093326,-0.25554916,131.77486,0.1,0.3080563,0.43882275,0.14046602,0.09158681,inf,inf,inf,inf,1,1,1,1,2,0,2,1,5,1,1,1
425806626,15154129,-33.9385715,18.8741563,-2.1315017,0.30277273,0.13049665,-0.23954648,0.1367903,0.0,0.00041765693,-0.013163631,0.0055617155,-0.06855388,-1.5294534,0.020032808,-0.32580173,-0.4343052,-0.0110791065,-0.60031116,3.0932374,-0.25554916,131.77486,0.1,0.30896798,0.43597043,0.14091839,0.09143399,inf,inf,inf,inf,1,1,1,1,2,0,2,1,5,1,1,1
425816631,15154129,-33.9385715,18.8741563,-2.131603,0.3021342,0.129767,-0.23954648,0.1367903,0.0,0.0010058697,-0.013086261,0.0058118366,-0.068315946,-1.5294534,0.020032808,-0.32580173,-0.3891232,-0.0023726737,-0.5666464,3.0931609,-0.25554916,131.77486,0.1,0.29253376,0.43318853,0.13225429,0.0897177,inf,inf,inf,inf,1,1,1,1,2,0,2,1,5,1,1,1
425826634,15154129,-33.9385715,18.8741563,-2.1316948,0.30151048,0.12907305,-0.23954648,0.1367903,0.0,0.00085314555,-0.012638719,0.006482422,-0.06762692,-1.5294534,0.020032808,-0.32580173,-0.51525706,0.23965181,-0.56577796,3.0931141,-0.25554916,131.77486,0.1,0.2933522,0.43373838,0.13269411,0.089841016,inf,inf,inf,inf,1,1,1,1,2,0,2,1,5,1,1,1
425836639,15154129,-33.9385715,18.8741563,-2.1317797,0.30089965,0.12841582,-0.23954648,0.1367903,0.0,0.00038330237,-0.01236473,0.0072382526,-0.0668233,-1.5294534,0.020032808,-0.32580173,-0.7289821,0.49277985,-0.5753252,3.093096,-0.25554916,131.77486,0.1,0.2941756,0.43428963,0.13313805,0.08996432,inf,inf,inf,inf,1,1,1,1,2,0,2,1,5,1,1,1
425846644,15154129,-33.9385715,18.8741563,-2.131859,0.30029663,0.12778689,-0.23954648,0.1367903,0.0,0.0004969155,-0.013450282,0.007438351,-0.06654735,-1.5294534,0.020032808,-0.32580173,-0.75277764,0.48651838,-0.43525818,3.0930502,-0.25554916,131.77486,0.1,0.295004,0.4348422,0.1335778,0.09008755,inf,inf,inf,inf,1,1,1,1,2,0,2,1,5,1,1,1
425856648,15154129,-33.9385715,18.8741563,-2.1319323,0.2996977,0.12718432,-0.23954648,0.1367903,0.0,0.0003092387,-0.014957474,0.00749781,-0.06638537,-1.5294534,0.020032808,-0.32580173,-0.8451065,0.33875203,-0.3550114,3.0930047,-0.25554916,131.77486,0.1,0.29583746,0.43539628,0.13401662,0.09021076,inf,inf,inf,inf,1,1,1,1,2,0,2,1,5,1,1,1
425866652,15154129,-33.9385715,18.8741563,-2.1319933,0.29910487,0.12660885,-0.23954648,0.1367903,0.0,0.0010219526,-0.016342638,0.0076411925,-0.06611417,-1.5294534,0.020032808,-0.32580173,-0.9398231,0.080866985,-0.32620144,3.093152,-0.25554916,131.77486,0.1,0.29667592,0.43595168,0.13445006,0.090333894,inf,inf,inf,inf,1,1,1,1,2,0,2,1,5,1,1,1
425876657,15154129,-33.9385715,18.8741563,-2.132038,0.29851958,0.12605405,-0.23954648,0.1367903,0.0,0.0026164276,-0.017879209,0.007897653,-0.065705575,-1.5294534,0.020032808,-0.32580173,-0.8701148,-0.2799237,-0.02246443,3.0934258,-0.25554916,131.77486,0.1,0.2975194,0.4365086,0.13488191,0.09045705,inf,inf,inf,inf,1,1,1,1,2,0,2,1,5,1,1,1
425886661,15154129,-33.9385715,18.8741563,-2.1320653,0.29795003,0.12552112,-0.23954648,0.1367903,0.0,0.0044887727,-0.01877883,0.00791969,-0.06550911,-1.5294534,0.020032808,-0.32580173,-0.6846919,-0.8018525,0.10757143,3.09372,-0.25554916,131.77486,0.1,0.2983679,0.43706682,0.135314,0.090580046,inf,inf,inf,inf,1,1,1,1,2,0,2,1,5,1,1,1
425896665,15154129,-33.9385715,18.8741563,-2.1320813,0.2973921,0.124761924,-0.23954648,0.1367903,0.0,0.00568509,-0.020340323,0.0060884976,-0.06738198,-1.5294534,0.020032808,-0.32580173,-0.44001788,-1.3047367,0.14151834,3.0941193,-0.25554916,131.77486,0.1,0.29922143,0.43424523,0.1357484,0.090436086,inf,inf,inf,inf,1,1,1,1,2,0,2,1,5,1,1,1
425906670,15154129,-33.9385715,18.8741563,-2.132094,0.2968412,0.12401244,-0.23954648,0.1367903,0.0,0.0058350284,-0.02043284,0.0035653904,-0.0699151,-1.5294534,0.020032808,-0.32580173,-0.26163635,-1.2667669,0.07542535,3.094701,-0.25554916,131.77486,0.1,0.30008,0.43480197,0.13618737,0.090559155,inf,inf,inf,inf,1,1,1,1,2,0,2,1,5,1,1,1
425916674,15154129,-33.9385715,18.8741563,-2.1321023,0.29630658,0.123269275,-0.23954648,0.1367903,0.0,0.0063920673,-0.019617375,0.0005817086,-0.07287861,-1.5294534,0.020032808,-0.32580173,-0.10369918,-1.1823217,-0.10598109,3.095345,-0.25554916,131.77486,0.1,0.30094364,0.4353602,0.13663161,0.09068236,inf,inf,inf,inf,1,1,1,1,2,0,2,1,5,1,1,1
425926679,15154129,-33.9385715,18.8741563,-2.1321008,0.29578578,0.122528166,-0.23954648,0.1367903,0.0,0.008245045,-0.017446108,-0.002034238,-0.07544548,-1.5294534,0.020032808,-0.32580173,0.26231876,-0.5173488,-0.099322796,3.0958276,-0.25554916,131.77486,0.1,0.30181238,0.43591988,0.13707712,0.09080557,inf,inf,inf,inf,1,1,1,1,2,0,2,1,5,1,1,1
425936683,15154129,-33.9385715,18.8741563,-2.1320882,0.2952832,0.12178541,-0.23954648,0.1367903,0.0,0.010267384,-0.013800065,-0.0049790796,-0.07831376,-1.5294534,0.020032808,-0.32580173,0.7307605,0.53450245,-0.058281068,3.0959756,-0.25554916,131.77486,0.1,0.30268624,0.43648085,0.137526,0.09092864,inf,inf,inf,inf,1,1,1,1,2,0,2,1,5,1,1,1
425946688,15154129,-33.9385715,18.8741563,-2.1320603,0.29479882,0.12104085,-0.23954648,0.1367903,0.0,0.010952485,-0.011827173,-0.008186391,-0.081418104,-1.5294534,0.020032808,-0.32580173,0.65980566,1.2163286,-0.1654647,3.0957708,-0.25554916,131.77486,0.1,0.30356523,0.43704337,0.13797274,0.09105166,inf,inf,inf,inf,1,1,1,1,2,0,2,1,5,1,1,1
425956744,15154129,-33.9385715,18.8741563,-2.1320157,0.29433024,0.120297216,-0.23954648,0.1367903,0.0,0.011657933,-0.010372117,-0.0101459725,-0.08324985,-1.5294534,0.020032808,-0.32580173,0.41008696,1.6089005,-0.10882631,3.0954168,-0.25554916,131.77486,0.1,0.30444938,0.4376072,0.13841972,0.091174535,inf,inf,inf,inf,1,1,1,1,2,0,2,1,5,1,1,1
425966691,15154129,-33.9385715,18.8741563,-2.131955,0.2938807,0.11956053,-0.23954648,0.1367903,0.0,0.012421387,-0.0103415875,-0.0108175585,-0.08376955,-1.5294534,0.020032808,-0.32580173,0.13838235,1.5017648,0.2535534,3.09505,-0.25554916,131.77486,0.1,0.30533868,0.43817258,0.13886777,0.09129753,inf,inf,inf,inf,1,1,1,1,2,0,2,1,5,1,1,1
425976701,15154129,-33.9385715,18.8741563,-2.1318786,0.29344252,0.118520685,-0.23954648,0.1367903,0.0,0.013416981,-0.012007096,-0.011582564,-0.08467691,-1.5294534,0.020032808,-0.32580173,0.029392513,0.92635465,0.4409685,3.094716,-0.25554916,131.77486,0.1,0.30623314,0.4353323,0.13931714,0.09114733,inf,inf,inf,inf,1,1,1,1,2,0,2,1,5,1,1,1
425986705,15154129,-33.9385715,18.8741563,-2.1317835,0.29302132,0.117508024,-0.23954648,0.1367903,0.0,0.015389645,-0.012898506,-0.011742396,-0.084943205,-1.5294534,0.020032808,-0.32580173,0.08038923,0.21203242,0.5951972,3.0944805,-0.25554916,131.77486,0.1,0.30713278,0.4358961,0.13976623,0.0912704,inf,inf,inf,inf,1,1,1,1,2,0,2,1,5,1,1,1
425996709,15154129,-33.9385715,18.8741563,-2.1316721,0.29261646,0.11652341,-0.23954648,0.1367903,0.0,0.017393116,-0.013291243,-0.0124467155,-0.0857199,-1.5294534,0.020032808,-0.32580173,0.33519432,-0.2525464,0.5501522,3.0942185,-0.25554916,131.77486,0.1,0.30803764,0.43646127,0.14021444,0.091393255,inf,inf,inf,inf,1,1,1,1,2,0,2,1,5,1,1,1
426006714,15154129,-33.9385715,18.8741563,-2.1315486,0.29222256,0.115564264,-0.23954648,0.1367903,0.0,0.017524995,-0.01298115,-0.013698124,-0.08701079,-1.5294534,0.020032808,-0.32580173,0.17813042,-0.24209006,0.35198876,3.093902,-0.25554916,131.77486,0.1,0.30894765,0.43702796,0.14066318,0.09151619,inf,inf,inf,inf,1,1,1,1,2,0,2,1,5,1,1,1
426016718,15154129,-33.9385715,18.8741563,-2.131403,0.29181242,0.11466691,-0.23954648,0.1367903,0.0,0.019111244,-0.012241503,-0.014757572,-0.08804075,-1.5294534,0.020032808,-0.32580173,0.48982978,-0.040786013,0.12414681,3.0935698,-0.25554916,131.77486,0.1,0.29253477,0.43422353,0.13203694,0.089794956,inf,inf,inf,inf,1,1,1,1,2,0,2,1,5,1,1,1
426026724,15154129,-33.9385715,18.8741563,-2.131248,0.29141116,0.11379376,-0.23954648,0.1367903,0.0,0.019056924,-0.011821057,-0.015579756,-0.088805124,-1.5294534,0.020032808,-0.32580173,0.35337782,0.23034197,-0.059047796,3.0931828,-0.25554916,131.77486,0.1,0.2933519,0.43477455,0.13247609,0.08991814,inf,inf,inf,inf,1,1,1,1,2,0,2,1,5,1,1,1
426036726,15154129,-33.9385715,18.8741563,-2.1310806,0.29101974,0.11295163,-0.23954648,0.1367903,0.0,0.019437449,-0.012171142,-0.015817873,-0.088958256,-1.5294534,0.020032808,-0.32580173,0.040584464,0.17764582,-0.34615266,3.0927627,-0.25554916,131.77486,0.1,0.294174,0.4353271,0.13291572,0.09004144,inf,inf,inf,inf,1,1,1,1,2,0,2,1,5,1,1,1
426046732,15154129,-33.9385715,18.8741563,-2.1309085,0.29063648,0.112130255,-0.23954648,0.1367903,0.0,0.018799344,-0.013499854,-0.016815187,-0.08984476,-1.5294534,0.020032808,-0.32580173,-0.23336524,-0.20643331,-0.42942792,3.0925093,-0.25554916,131.77486,0.1,0.29500103,0.43588096,0.1333558,0.090164684,inf,inf,inf,inf,1,1,1,1,2,0,2,1,5,1,1,1
426056735,15154129,-33.9385715,18.8741563,-2.130728,0.2902669,0.11132849,-0.23954648,0.1367903,0.0,0.01999349,-0.014619514,-0.017101727,-0.08999571,-1.5294534,0.020032808,-0.32580173,-0.20002025,-0.87677276,-0.35137063,3.092542,-0.25554916,131.77486,0.10044881,0.2958331,0.43643633,0.13379742,0.09028797,inf,inf,inf,inf,1,1,1,1,2,0,2,1,5,1,1,1
426066740,15154129,-33.9385715,18.8741563,-2.1305397,0.28991506,0.11027004,-0.23954648,0.1367903,0.0,0.021016754,-0.014355773,-0.017215338,-0.09023385,-1.5294534,0.020032808,-0.32580173,-0.0020078963,-1.3012437,-0.37670302,3.0927503,-0.25554916,131.77486,0.1,0.29667017,0.4336262,0.13424635,0.09014686,inf,inf,inf,inf,1,1,1,1,2,0,2,1,5,1,1,1
426076745,15154129,-33.9385715,18.8741563,-2.1303403,0.2895791,0.10924722,-0.23954648,0.1367903,0.0,0.022058943,-0.012263995,-0.016942993,-0.09005096,-1.5294534,0.020032808,-0.32580173,0.060429137,-0.9782426,-0.35573968,3.0928338,-0.25554916,131.77486,0.1,0.2975123,0.43418008,0.13469854,0.0902701,inf,inf,inf,inf,1,1,1,1,2,0,2,1,5,1,1,1
426086749,15154129,-33.9385715,18.8741563,-2.130137,0.2892492,0.10826309,-0.23954648,0.1367903,0.0,0.021402167,-0.010259723,-0.015980463,-0.089143954,-1.5294534,0.020032808,-0.32580173,-0.106131814,-0.11832769,-0.2505075,3.092903,-0.25554916,131.77486,0.1,0.2983595,0.43473527,0.13515316,0.090393186,inf,inf,inf,inf,1,1,1,1,2,0,2,1,5,1,1,1
426096759,15154129,-33.9385715,18.8741563,-2.1299345,0.2889125,0.10730903,-0.23954648,0.1367903,0.0,0.02072258,-0.010744927,-0.016154459,-0.089341365,-1.5294534,0.020032808,-0.32580173,-0.23361842,0.5118849,-0.13851896,3.093333,-0.25554916,131.77486,0.1,0.29921183,0.435292,0.13560727,0.09051633,inf,inf,inf,inf,1,1,1,1,2,0,2,1,5,1,1,1
426106758,15154129,-33.9385715,18.8741563,-2.1297348,0.2885638,0.10637736,-0.23954648,0.1367903,0.0,0.020099273,-0.01308108,-0.017102052,-0.09028166,-1.5294534,0.020032808,-0.32580173,-0.27946556,0.5844292,-0.09710641,3.0943246,-0.25554916,131.77486,0.1,0.3000692,0.43585014,0.13606331,0.09063936,inf,inf,inf,inf,1,1,1,1,2,0,2,1,5,1,1,1
426116762,15154129,-33.9385715,18.8741563,-2.1295397,0.28820822,0.10546608,-0.23954648,0.1367903,0.0,0.019828679,-0.016362403,-0.017586222,-0.09072951,-1.5294534,0.020032808,-0.32580173,-0.12387247,-0.00063263695,0.017167237,3.095681,-0.25554916,131.77486,0.1,0.30093178,0.4364096,0.13652122,0.090762325,inf,inf,inf,inf,1,1,1,1,2,0,2,1,5,1,1,1
426126766,15154129,-33.9385715,18.8741563,-2.1293516,0.28784317,0.10457577,-0.23954648,0.1367903,0.0,0.018895075,-0.017636154,-0.017940708,-0.091019444,-1.5294534,0.020032808,-0.32580173,-0.066481665,0.033959024,0.16284221,3.096938,-0.25554916,131.77486,0.100048915,0.30179945,0.4369706,0.13697727,0.09088538,inf,inf,inf,inf,1,1,1,1,2,0,2,1,5,1,1,1
426136816,15154129,-33.9385715,18.8741563,-2.1291704,0.28747815,0.10370377,-0.23954648,0.1367903,0.0,0.018289171,-0.015943957,-0.018197777,-0.09118467,-1.5294534,0.020032808,-0.32580173,0.046957437,0.72773576,0.4182165,3.0978615,-0.25554916,131.77486,0.10082179,0.30267227,0.43753287,0.13742559,0.09100837,inf,inf,inf,inf,1,1,1,1,2,0,2,1,5,1,1,1
426146797,15154129,-33.9385715,18.8741563,-2.1289937,0.2871276,0.10284908,-0.23954648,0.1367903,0.0,0.01725149,-0.0155000165,-0.020384287,-0.09325373,-1.5294534,0.020032808,-0.32580173,-0.12862593,0.83746994,0.18101813,3.0985823,-0.25554916,131.77486,0.10155472,0.30355024,0.4380967,0.13787721,0.09113159,inf,inf,inf,inf,1,1,1,1,2,0,2,1,5,1,1,1
426156779,15154129,-33.9385715,18.8741563,-2.1288133,0.2867987,0.1016789,-0.23954648,0.1367903,0.0,0.018257828,-0.015734801,-0.023087628,-0.096143596,-1.5294534,0.020032808,-0.32580173,-0.019260516,0.24132562,-0.19646858,3.0990224,-0.25554916,131.77486,0.1,0.30443332,0.43525666,0.13832717,0.09098272,inf,inf,inf,inf,1,1,1,1,2,0,2,1,5,1,1,1
426166784,15154129,-33.9385715,18.8741563,-2.128629,0.2864956,0.1005256,-0.23954648,0.1367903,0.0,0.019321455,-0.014850701,-0.024065187,-0.09726988,-1.5294534,0.020032808,-0.32580173,0.335692,-0.30631357,0.008504186,3.0986798,-0.25554916,131.77486,0.1,0.3053216,0.43581894,0.1387799,0.091105975,inf,inf,inf,inf,1,1,1,1,2,0,2,1,5,1,1,1
426176788,15154129,-33.9385715,18.8741563,-2.1284342,0.28621134,0.09938564,-0.23954648,0.1367903,0.0,0.020422522,-0.012697966,-0.025928505,-0.09924523,-1.5294534,0.020032808,-0.32580173,0.41877517,-0.07764835,0.2444494,3.0979779,-0.25554916,131.77486,0.1,0.30621502,0.43638256,0.13923538,0.09122895,inf,inf,inf,inf,1,1,1,1,2,0,2,1,5,1,1,1
426186792,15154129,-33.9385715,18.8741563,-2.1282303,0.2859435,0.098267004,-0.23954648,0.1367903,0.0,0.01987607,-0.011496948,-0.02868295,-0.10207707,-1.5294534,0.020032808,-0.32580173,0.08220793,0.08886565,-0.27301514,3.0976305,-0.25554916,131.77486,0.1,0.30711368,0.4369477,0.13969098,0.09135205,inf,inf,inf,inf,1,1,1,1,2,0,2,1,5,1,1,1
426196798,15154129,-33.9385715,18.8741563,-2.1280098,0.28570035,0.09717782,-0.23954648,0.1367903,0.0,0.021780953,-0.012195868,-0.0289537,-0.10239205,-1.5294534,0.020032808,-0.32580173,-0.007834533,-0.7341018,-0.51820064,3.097243,-0.25554916,131.77486,0.1,0.3080175,0.4375143,0.14014652,0.09147503,inf,inf,inf,inf,1,1,1,1,2,0,2,1,5,1,1,1
426206801,15154129,-33.9385715,18.8741563,-2.1277828,0.28547746,0.0961098,-0.23954648,0.1367903,0.0,0.022840876,-0.010562229,-0.028678494,-0.102128826,-1.5294534,0.020032808,-0.32580173,0.29689044,-0.8827545,-0.052954968,3.096444,-0.25554916,131.77486,0.1,0.30892655,0.43808222,0.14060058,0.091597974,inf,inf,inf,inf,1,1,1,1,2,0,2,1,5,1,1,1
426216805,15154129,-33.9385715,18.8741563,-2.1274526,0.2850146,0.094911076,-0.23954648,0.1367903,0.0,0.021750282,-0.0076576774,-0.031050814,-0.10463985,-1.5294534,0.020032808,-0.32580173,-0.031376105,-0.2326593,-0.419149,3.0958056,-0.25554916,131.77486,0.1,0.29250127,0.4352554,0.13198741,0.089871794,inf,inf,inf,inf,1,1,1,1,2,0,2,1,5,1,1,1
426226810,15154129,-33.9385715,18.8741563,-2.1271198,0.28456905,0.09374672,-0.23954648,0.1367903,0.0,0.021430202,-0.006472015,-0.03066379,-0.10435487,-1.5294534,0.020032808,-0.32580173,-0.40905175,0.22877134,-0.5385534,3.095471,-0.25554916,131.77486,0.1,0.2933175,0.4358077,0.13242942,0.08999501,inf,inf,inf,inf,1,1,1,1,2,0,2,1,5,1,1,1
426236815,15154129,-33.9385715,18.8741563,-2.1267872,0.28414512,0.092131615,-0.23954648,0.1367903,0.0,0.023850093,-0.0070291865,-0.027188366,-0.10143736,-1.5294534,0.020032808,-0.32580173,0.24029672,-0.20239097,0.4404545,3.094986,-0.25554916,131.77486,0.1,0.2941387,0.43300918,0.13287146,0.08985658,inf,inf,inf,inf,1,1,1,1,2,0,2,1,5,1,1,1
426246819,15154129,-33.9385715,18.8741563,-2.12646,0.2837455,0.09056783,-0.23954648,0.1367903,0.0,0.024460346,-0.004853957,-0.026644321,-0.1013961,-1.5294534,0.020032808,-0.32580173,0.8351186,-0.11842453,0.85326326,3.0942428,-0.25554916,131.77486,0.1,0.29496488,0.43356004,0.13331282,0.089979626,inf,inf,inf,inf,1,1,1,1,2,0,2,1,5,1,1,1
426256823,15154129,-33.9385715,18.8741563,-2.1261332,0.28335598,0.08906971,-0.23954648,0.1367903,0.0,0.021645466,-0.0026926943,-0.028795103,-0.10399738,-1.5294534,0.020032808,-0.32580173,0.008698193,0.8231366,-0.500771,3.0935469,-0.25554916,131.77486,0.1,0.2957961,0.4341124,0.1337524,0.09010263,inf,inf,inf,inf,1,1,1,1,2,0,2,1,5,1,1,1
426266827,15154129,-33.9385715,18.8741563,-2.1258044,0.28297755,0.087631136,-0.23954648,0.1367903,0.0,0.021378087,-0.0068747015,-0.026563913,-0.10216652,-1.5294534,0.020032808,-0.32580173,-0.48212755,-0.15854977,-0.62288636,3.0930307,-0.25554916,131.77486,0.1,0.29663226,0.4346661,0.13419715,0.0902257,inf,inf,inf,inf,1,1,1,1,2,0,2,1,5,1,1,1
426276832,15154129,-33.9385715,18.8741563,-2.1254845,0.28261432,0.086238034,-0.23954648,0.1367903,0.0,0.024045203,-0.009301303,-0.022896053,-0.09885086,-1.5294534,0.020032808,-0.32580173,0.5893731,-1.4187443,0.628381,3.092469,-0.25554916,131.77486,0.1,0.2974735,0.4352213,0.13464516,0.090348944,inf,inf,inf,inf,1,1,1,1,2,0,2,1,5,1,1,1
426286836,15154129,-33.9385715,18.8741563,-2.1251705,0.2822554,0.08489845,-0.23954648,0.1367903,0.0,0.02144114,-0.004672035,-0.024671378,-0.1009322,-1.5294534,0.020032808,-0.32580173,0.2609455,0.00934173,0.012320671,3.0918956,-0.25554916,131.77486,0.1,0.2983198,0.43577793,0.13509256,0.09047223,inf,inf,inf,inf,1,1,1,1,2,0,2,1,5,1,1,1
426296844,15154129,-33.9385715,18.8741563,-2.124851,0.28189233,0.08361189,-0.23954648,0.1367903,0.0,0.020887569,-0.0061889472,-0.023664817,-0.10018774,-1.5294534,0.020032808,-0.32580173,-0.4161215,0.6180422,-0.36630735,3.0914328,-0.25554916,131.77486,0.1,0.29917112,0.43633583,0.13554014,0.090595216,inf,inf,inf,inf,1,1,1,1,2,0,2,1,5,1,1,1
426306861,15154129,-33.9385715,18.8741563,-2.1245337,0.28153628,0.08236276,-0.23954648,0.1367903,0.0,0.024058595,-0.012042192,-0.021255134,-0.09799755,-1.5294534,0.020032808,-0.32580173,0.5257756,-1.1406263,0.53613544,3.0911515,-0.25554916,131.77486,0.1,0.30002755,0.43689528,0.13598964,0.09071809,inf,inf,inf,inf,1,1,1,1,2,0,2,1,5,1,1,1
426316850,15154129,-33.9385715,18.8741563,-2.1242087,0.2811809,0.08116081,-0.23954648,0.1367903,0.0,0.022609219,-0.0106237605,-0.02417759,-0.10109858,-1.5294534,0.020032808,-0.32580173,0.02256187,-0.8888952,-0.4188285,3.0907395,-0.25554916,131.77486,0.1,0.30088905,0.437456,0.13644452,0.090840936,inf,inf,inf,inf,1,1,1,1,2,0,2,1,5,1,1,1
426326854,15154129,-33.9385715,18.8741563,-2.1238604,0.28081876,0.07964987,-0.23954648,0.1367903,0.0,0.022874378,-0.011044329,-0.021195754,-0.09862438,-1.5294534,0.020032808,-0.32580173,-1.0196413,-0.20954148,-0.5890422,3.090182,-0.25554916,131.77486,0.1,0.30175567,0.43462795,0.13690206,0.090694875,inf,inf,inf,inf,1,1,1,1,2,0,2,1,5,1,1,1
426336858,15154129,-33.9385715,18.8741563,-2.123502,0.28046772,0.07819434,-0.23954648,0.1367903,0.0,0.029059093,-0.013632092,-0.016337907,-0.09422002,-1.5294534,0.020032808,-0.32580173,0.42486975,-1.1222583,0.8919752,3.0899155,-0.25554916,131.77486,0.1,0.30262744,0.4351872,0.13735488,0.09081789,inf,inf,inf,inf,1,1,1,1,2,0,2,1,5,1,1,1
426346863,15154129,-33.9385715,18.8741563,-2.1231325,0.28012812,0.07679557,-0.23954648,0.1367903,0.0,0.02789666,-0.008028717,-0.019122083,-0.0974063,-1.5294534,0.020032808,-0.32580173,0.22739816,0.1861901,0.13862522,3.0893598,-0.25554916,131.77486,0.1,0.30350435,0.43574795,0.13781165,0.090940915,inf,inf,inf,inf,1,1,1,1,2,0,2,1,5,1,1,1
426356867,15154129,-33.9385715,18.8741563,-2.1227431,0.27979356,0.07545515,-0.23954648,0.1367903,0.0,0.027726922,-0.007875931,-0.018655883,-0.09729354,-1.5294534,0.020032808,-0.32580173,-0.77447313,0.93648684,-0.57396376,3.0883083,-0.25554916,131.77486,0.1,0.30438644,0.43631002,0.1382725,0.09106379,inf,inf,inf,inf,1,1,1,1,2,0,2,1,5,1,1,1
426366871,15154129,-33.9385715,18.8741563,-2.122354,0.27947477,0.07415695,-0.23954648,0.1367903,0.0,0.03161216,-0.01229238,-0.015885541,-0.094829306,-1.5294534,0.020032808,-0.32580173,0.32528803,-0.6975244,0.31684604,3.0878477,-0.25554916,131.77486,0.1,0.30527368,0.43687367,0.13872522,0.09118697,inf,inf,inf,inf,1,1,1,1,2,0,2,1,5,1,1,1
426376877,15154129,-33.9385715,18.8741563,-2.1219544,0.27913854,0.07291204,-0.23954648,0.1367903,0.0,0.032708738,-0.010035473,-0.015140287,-0.09434479,-1.5294534,0.020032808,-0.32580173,0.5945662,0.51355183,0.34362602,3.0874112,-0.25554916,131.77486,0.1,0.30616614,0.43743873,0.13917643,0.09130991,inf,inf,inf,inf,1,1,1,1,2,0,2,1,5,1,1,1
426386880,15154129,-33.9385715,18.8741563,-2.121529,0.2787833,0.071709,-0.23954648,0.1367903,0.0,0.03582532,-0.013305682,-0.01414056,-0.09356262,-1.5294534,0.020032808,-0.32580173,0.57430184,0.81239635,0.6293906,3.0867941,-0.25554916,131.77486,0.1,0.30706376,0.43800512,0.13963796,0.09143252,inf,inf,inf,inf,1,1,1,1,2,0,2,1,5,1,1,1
426396885,15154129,-33.9385715,18.8741563,-2.12109,0.27843603,0.07054539,-0.23954648,0.1367903,0.0,0.037000086,-0.016892353,-0.017598657,-0.09719659,-1.5294534,0.020032808,-0.32580173,0.61640465,-0.60435325,-0.36052755,3.086615,-0.25554916,131.77486,0.1,0.3079666,0.438573,0.14009017,0.0915553,inf,inf,inf,inf,1,1,1,1,2,0,2,1,5,1,1,1
426406889,15154129,-33.9385715,18.8741563,-2.1206148,0.2780768,0.06943051,-0.23954648,0.1367903,0.0,0.03794694,-0.016787829,-0.015505595,-0.095239006,-1.5294534,0.020032808,-0.32580173,-0.4667775,-0.16850719,-0.509863,3.0860717,-0.25554916,131.77486,0.1,0.30887464,0.43914226,0.14053151,0.09167818,inf,inf,inf,inf,1,1,1,1,2,0,2,1,5,1,1,1
426416893,15154129,-33.9385715,18.8741563,-2.1200523,0.277655,0.06804202,-0.23954648,0.1367903,0.0,0.048144072,-0.02014415,-0.010777948,-0.090920515,-1.5294534,0.020032808,-0.32580173,0.8231956,-0.92557347,1.1174134,3.0858538,-0.25554916,131.77486,0.1,0.29244247,0.43294212,0.1319235,0.089686394,inf,inf,inf,inf,1,1,1,1,2,0,2,1,5,1,1,1
426426897,15154129,-33.9385715,18.8741563,-2.1194506,0.2772408,0.06671808,-0.23954648,0.1367903,0.0,0.04897788,-0.014776569,-0.014008357,-0.0945091,-1.5294534,0.020032808,-0.32580173,0.46003905,0.43434748,-0.116434544,3.0855284,-0.25554916,131.77486,0.1,0.29325768,0.43349147,0.13237289,0.0898092,inf,inf,inf,inf,1,1,1,1,2,0,2,1,5,1,1,1
426436902,15154129,-33.9385715,18.8741563,-2.118797,0.27683508,0.06544794,-0.23954648,0.1367903,0.0,0.053984378,-0.016718283,-0.01224777,-0.093058385,-1.5294534,0.020032808,-0.32580173,-0.11075015,0.41762388,-0.3276932,3.0849342,-0.25554916,131.77486,0.1,0.29407793,0.43404227,0.13280784,0.08993253,inf,inf,inf,inf,1,1,1,1,2,0,2,1,5,1,1,1
426446906,15154129,-33.9385715,18.8741563,-2.1181164,0.27643567,0.06422659,-0.23954648,0.1367903,0.0,0.061194412,-0.017923312,-0.009679248,-0.09075285,-1.5294534,0.020032808,-0.32580173,1.3964367,-0.09532228,0.40923503,3.0850172,-0.25554916,131.77486,0.1,0.2949031,0.43459442,0.13323838,0.09005578,inf,inf,inf,inf,1,1,1,1,2,0,2,1,5,1,1,1
426456911,15154129,-33.9385715,18.8741563,-2.1173894,0.27602446,0.06306158,-0.23954648,0.1367903,0.0,0.060289234,-0.018770622,-0.009366215,-0.090658434,-1.5294534,0.020032808,-0.32580173,-0.05150522,0.3208499,0.16406745,3.0845737,-0.25554916,131.77486,0.1,0.29573324,0.43514806,0.13368867,0.09017844,inf,inf,inf,inf,1,1,1,1,2,0,2,1,5,1,1,1
426466916,15154129,-33.9385715,18.8741563,-2.1166394,0.27562383,0.061932556,-0.23954648,0.1367903,0.0,0.06489201,-0.023373004,-0.010959453,-0.09242776,-1.5294534,0.020032808,-0.32580173,0.21250603,-1.2070303,-0.14784183,3.0845714,-0.25554916,131.77486,0.1,0.29656842,0.4357031,0.13413027,0.09030152,inf,inf,inf,inf,1,1,1,1,2,0,2,1,5,1,1,1
426476920,15154129,-33.9385715,18.8741563,-2.1158507,0.27520287,0.060871195,-0.23954648,0.1367903,0.0,0.067205966,-0.020910433,-0.006328374,-0.08793138,-1.5294534,0.020032808,-0.32580173,-0.24457599,0.17302118,-0.050511356,3.0843995,-0.25554916,131.77486,0.1,0.29740858,0.43625948,0.13456818,0.090424955,inf,inf,inf,inf,1,1,1,1,2,0,2,1,5,1,1,1
426486924,15154129,-33.9385715,18.8741563,-2.1150427,0.2747942,0.059832774,-0.23954648,0.1367903,0.0,0.07195476,-0.022009803,-0.007700416,-0.089399196,-1.5294534,0.020032808,-0.32580173,0.5754204,-0.13400762,0.5633691,3.084099,-0.25554916,131.77486,0.1,0.29825377,0.43681735,0.13502465,0.09054781,inf,inf,inf,inf,1,1,1,1,2,0,2,1,5,1,1,1
426496930,15154129,-33.9385715,18.8741563,-2.1142075,0.2743766,0.058452483,-0.23954648,0.1367903,0.0,0.07282468,-0.021260459,-0.008466537,-0.09062887,-1.5294534,0.020032808,-0.32580173,0.10996409,0.6295057,-0.7865502,3.083803,-0.25554916,131.77486,0.1,0.29910406,0.43400094,0.13546096,0.09040424,inf,inf,inf,inf,1,1,1,1,2,0,2,1,5,1,1,1
426506934,15154129,-33.9385715,18.8741563,-2.113344,0.27396283,0.057100896,-0.23954648,0.1367903,0.0,0.07819276,-0.025399087,-0.0060177953,-0.088590086,-1.5294534,0.020032808,-0.32580173,0.582095,-0.4325287,0.68526477,3.083657,-0.25554916,131.77486,0.1,0.29995936,0.43455735,0.13589148,0.09052774,inf,inf,inf,inf,1,1,1,1,2,0,2,1,5,1,1,1
426516938,15154129,-33.9385715,18.8741563,-2.1124618,0.27353957,0.05581211,-0.23954648,0.1367903,0.0,0.07708967,-0.026188279,-0.008193327,-0.09112403,-1.5294534,0.020032808,-0.32580173,-0.0073342924,-0.43854457,-0.33354655,3.0835097,-0.25554916,131.77486,0.1,0.30081967,0.43511504,0.13634995,0.09065028,inf,inf,inf,inf,1,1,1,1,2,0,2,1,5,1,1,1
426526953,15154129,-33.9385715,18.8741563,-2.1115496,0.27309737,0.054559913,-0.23954648,0.1367903,0.0,0.08048568,-0.031086199,-0.0069923196,-0.090232134,-1.5294534,0.020032808,-0.32580173,-0.37556776,-0.9256834,0.12982967,3.0835633,-0.25554916,131.77486,0.1,0.30168512,0.43567428,0.13679765,0.09077324,inf,inf,inf,inf,1,1,1,1,2,0,2,1,5,1,1,1
426536966,15154129,-33.9385715,18.8741563,-2.110631,0.27262312,0.05337268,-0.23954648,0.1367903,0.0,0.08370798,-0.030307518,-0.0049972106,-0.08849851,-1.5294534,0.020032808,-0.32580173,0.6014183,0.34976575,0.016989978,3.0841448,-0.25554916,131.77486,0.1,0.30255568,0.43623483,0.13723803,0.090896584,inf,inf,inf,inf,1,1,1,1,2,0,2,1,5,1,1,1
426546951,15154129,-33.9385715,18.8741563,-2.1096919,0.27213135,0.052203003,-0.23954648,0.1367903,0.0,0.084392995,-0.036215812,-0.0085629495,-0.09228045,-1.5294534,0.020032808,-0.32580173,0.16808708,-0.34051067,0.15378131,3.084407,-0.25554916,131.77486,0.1,0.3034313,0.4367969,0.1376862,0.09101943,inf,inf,inf,inf,1,1,1,1,2,0,2,1,5,1,1,1
426556960,15154129,-33.9385715,18.8741563,-2.1087306,0.27161583,0.05110511,-0.23954648,0.1367903,0.0,0.08679497,-0.037177537,-0.005611793,-0.08950211,-1.5294534,0.020032808,-0.32580173,0.095575035,-0.008852233,-0.5416151,3.0851576,-0.25554916,131.77486,0.1,0.30431205,0.4373604,0.13813446,0.09114274,inf,inf,inf,inf,1,1,1,1,2,0,2,1,5,1,1,1
426567011,15154129,-33.9385715,18.8741563,-2.1077387,0.2711003,0.05000882,-0.23954648,0.1367903,0.0,0.09075591,-0.039665822,-0.008047741,-0.092069656,-1.5294534,0.020032808,-0.32580173,0.39811158,-0.6766718,0.49631712,3.0856361,-0.25554916,131.77486,0.1,0.30519792,0.43792522,0.13860007,0.09126591,inf,inf,inf,inf,1,1,1,1,2,0,2,1,5,1,1,1
426576991,15154129,-33.9385715,18.8741563,-2.1067224,0.27056855,0.048985273,-0.23954648,0.1367903,0.0,0.093106814,-0.03856597,-0.0037228218,-0.08783653,-1.5294534,0.020032808,-0.32580173,0.17785266,0.3820032,0.15856285,3.085713,-0.25554916,131.77486,0.1,0.30608904,0.43849158,0.13904558,0.09138879,inf,inf,inf,inf,1,1,1,1,2,0,2,1,5,1,1,1
426586981,15154129,-33.9385715,18.8741563,-2.1056643,0.27004483,0.04755923,-0.23954648,0.1367903,0.0,0.099882506,-0.04012363,-0.005667147,-0.090284936,-1.5294534,0.020032808,-0.32580173,0.7407097,-0.095770486,-0.24819514,3.0863302,-0.25554916,131.77486,0.1,0.30698526,0.43564487,0.13948247,0.09123821,inf,inf,inf,inf,1,1,1,1,2,0,2,1,5,1,1,1
426596975,15154129,-33.9385715,18.8741563,-2.104585,0.2695069,0.04616418,-0.23954648,0.1367903,0.0,0.09915472,-0.042197105,-0.0044307695,-0.089496285,-1.5294534,0.020032808,-0.32580173,0.32271,-0.09799605,0.7359564,3.0865138,-0.25554916,131.77486,0.1,0.30788663,0.43620968,0.13994884,0.09136091,inf,inf,inf,inf,1,1,1,1,2,0,2,1,5,1,1,1
426606978,15154129,-33.9385715,18.8741563,-2.1034522,0.26897326,0.044867508,-0.23954648,0.1367903,0.0,0.10560827,-0.042298976,-0.003372645,-0.08883177,-1.5294534,0.020032808,-0.32580173,-0.015363101,-0.28770596,-0.8099868,3.0870464,-0.25554916,131.77486,0.1,0.30879322,0.4367758,0.14039809,0.09148416,inf,inf,inf,inf,1,1,1,1,2,0,2,1,5,1,1,1
426616982,15154129,-33.9385715,18.8741563,-2.1025627,0.2683717,0.04390318,-0.23954648,0.1367903,0.0,0.10821851,-0.040960222,-0.0045499043,-0.0900147,-1.5294534,0.020032808,-0.32580173,0.41356978,0.26649132,0.5970576,3.08748,-0.25554916,131.77486,0.1,0.29238737,0.43397817,0.13180894,0.089764975,inf,inf,inf,inf,1,1,1,1,2,0,2,1,5,1,1,1
426626989,15154129,-33.9385715,18.8741563,-2.1016424,0.26776642,0.04301365,-0.23954648,0.1367903,0.0,0.11179107,-0.04442315,0.0013228399,-0.08411281,-1.5294534,0.020032808,-0.32580173,0.8012689,-0.1816094,0.65465945,3.0879295,-0.25554916,131.77486,0.1,0.29320142,0.4345288,0.13225093,0.08988797,inf,inf,inf,inf,1,1,1,1,2,0,2,1,5,1,1,1
426636990,15154129,-33.9385715,18.8741563,-2.1006653,0.2671537,0.042173974,-0.23954648,0.1367903,0.0,0.11369215,-0.045761533,-0.004501962,-0.089875005,-1.5294534,0.020032808,-0.32580173,-0.31934,-0.36855155,-1.1409571,3.0888436,-0.25554916,131.77486,0.1,0.29402044,0.43508092,0.13270114,0.09001164,inf,inf,inf,inf,1,1,1,1,2,0,2,1,5,1,1,1
426647000,15154129,-33.9385715,18.8741563,-2.0996852,0.2665388,0.041309223,-0.23954648,0.1367903,0.0,0.11432502,-0.046006173,-0.0035944772,-0.08887297,-1.5294534,0.020032808,-0.32580173,0.2123823,-0.23228998,0.83769745,3.0892992,-0.25554916,131.77486,0.1,0.29484448,0.43563443,0.13312909,0.09013458,inf,inf,inf,inf,1,1,1,1,2,0,2,1,5,1,1,1
426656999,15154129,-33.9385715,18.8741563,-2.098652,0.26592463,0.040536564,-0.23954648,0.1367903,0.0,0.122763455,-0.045066606,0.00081163907,-0.084341645,-1.5294534,0.020032808,-0.32580173,0.872348,0.27803007,-0.12983054,3.0902348,-0.25554916,131.77486,0.1,0.29567346,0.43618926,0.13357979,0.09025791,inf,inf,inf,inf,1,1,1,1,2,0,2,1,5,1,1,1
426667003,15154129,-33.9385715,18.8741563,-2.0975633,0.26532248,0.03976867,-0.23954648,0.1367903,0.0,0.124520294,-0.044903178,-0.0039015855,-0.088900544,-1.5294534,0.020032808,-0.32580173,0.2823763,0.21079539,-0.10263817,3.0911264,-0.25554916,131.77486,0.1,0.29650742,0.4367456,0.13402857,0.09038092,inf,inf,inf,inf,1,1,1,1,2,0,2,1,5,1,1,1
426677008,15154129,-33.9385715,18.8741563,-2.09645,0.2647525,0.038577676,-0.23954648,0.1367903,0.0,0.12468136,-0.04275363,-0.003381465,-0.088641964,-1.5294534,0.020032808,-0.32580173,-0.25641862,-0.15874581,0.11943993,3.0916603,-0.25554916,131.77486,0.100944966,0.29734644,0.43392935,0.13446748,0.090239026,inf,inf,inf,inf,1,1,1,1,2,0,2,1,5,1,1,1
426687012,15154129,-33.9385715,18.8741563,-2.0952864,0.26419786,0.037468057,-0.23954648,0.1367903,0.0,0.13613684,-0.04014324,0.002115434,-0.08336052,-1.5294534,0.020032808,-0.32580173,1.382828,0.4529555,0.31459734,3.0927587,-0.25554916,131.77486,0.10205458,0.2981905,0.4344842,0.13492393,0.09036211,inf,inf,inf,inf,1,1,1,1,2,0,2,1,5,1,1,1
426697016,15154129,-33.9385715,18.8741563,-2.09406,0.2636638,0.036380794,-0.23954648,0.1367903,0.0,0.13522607,-0.039815914,-0.004749038,-0.090396576,-1.5294534,0.020032808,-0.32580173,-0.08474914,0.20644553,-0.408703,3.093418,-0.25554916,131.77486,0.103141844,0.29903957,0.43504038,0.1353707,0.09048559,inf,inf,inf,inf,1,1,1,1,2,0,2,1,5,1,1,1
426707021,15154129,-33.9385715,18.8741563,-2.0928197,0.2631691,0.03533193,-0.23954648,0.1367903,0.0,0.13652928,-0.03572107,-0.0004742206,-0.08625101,-1.5294534,0.020032808,-0.32580173,-0.12478708,0.12817964,0.27731243,3.0939941,-0.25554916,131.77486,0.10419071,0.29989374,0.43559808,0.13581546,0.09060875,inf,inf,inf,inf,1,1,1,1,2,0,2,1,5,1,1,1
426717025,15154129,-33.9385715,18.8741563,-2.0915563,0.26270086,0.034338385,-0.23954648,0.1367903,0.0,0.14197554,-0.033544783,-0.00020075099,-0.08606641,-1.5294534,0.020032808,-0.32580173,0.8986978,0.36140296,0.17313118,3.0943332,-0.25554916,131.77486,0.10518426,0.30075297,0.4361571,0.13628146,0.09073219,inf,inf,inf,inf,1,1,1,1,2,0,2,1,5,1,1,1
426727029,15154129,-33.9385715,18.8741563,-2.0902154,0.26224726,0.03340313,-0.23954648,0.1367903,0.0,0.14854188,-0.033809047,0.00237056,-0.08354521,-1.5294534,0.020032808,-0.32580173,0.479109,0.12689662,0.1289468,3.0945292,-0.25554916,131.77486,0.10611951,0.30161732,0.43671766,0.13672557,0.090855375,inf,inf,inf,inf,1,1,1,1,2,0,2,1,5,1,1,1
426737042,15154129,-33.9385715,18.8741563,-2.0888557,0.26181638,0.032507412,-0.23954648,0.1367903,0.0,0.14524727,-0.031593185,0.0019975281,-0.083931126,-1.5294534,0.020032808,-0.32580173,-0.3798008,0.03010146,0.1906497,3.094517,-0.25554916,131.77486,0.10701523,0.30248675,0.43727958,0.13719276,0.090978876,inf,inf,inf,inf,1,1,1,1,2,0,2,1,5,1,1,1
426747038,15154129,-33.9385715,18.8741563,-2.0874982,0.26141396,0.031672172,-0.23954648,0.1367903,0.0,0.14723632,-0.02836932,0.0044188476,-0.08148614,-1.5294534,0.020032808,-0.32580173,0.02029759,0.29823232,-0.084975876,3.0944433,-0.25554916,131.77486,0.10785047,0.30336133,0.43784288,0.13763335,0.09110179,inf,inf,inf,inf,1,1,1,1,2,0,2,1,5,1,1,1
426757085,15154129,-33.9385715,18.8741563,-2.086126,0.26101598,0.030296605,-0.23954648,0.1367903,0.0,0.14851986,-0.031077256,0.0023686097,-0.08404338,-1.5294534,0.020032808,-0.32580173,0.4738066,-0.22062583,0.1564738,3.0945933,-0.25554916,131.77486,0.10922603,0.304241,0.43500832,0.13809939,0.0909541,inf,inf,inf,inf,1,1,1,1,2,0,2,1,5,1,1,1
426767046,15154129,-33.9385715,18.8741563,-2.084711,0.26060134,0.029018806,-0.23954648,0.1367903,0.0,0.15324675,-0.03451139,0.0111132255,-0.075747944,-1.5294534,0.020032808,-0.32580173,-0.06204863,-0.5685469,0.8041486,3.094639,-0.25554916,131.77486,0.11050384,0.30512583,0.4355701,0.13855459,0.09107717,inf,inf,inf,inf,1,1,1,1,2,0,2,1,5,1,1,1
426777051,15154129,-33.9385715,18.8741563,-2.0833037,0.26017642,0.027799597,-0.23954648,0.1367903,0.0,0.14873584,-0.031150347,0.003099806,-0.08415564,-1.5294534,0.020032808,-0.32580173,-0.25483903,0.6177796,-1.0683035,3.0946956,-0.25554916,131.77486,0.11172304,0.30601582,0.43613335,0.13901266,0.09120072,inf,inf,inf,inf,1,1,1,1,2,0,2,1,5,1,1,1
426787056,15154129,-33.9385715,18.8741563,-2.0819159,0.25978157,0.026558416,-0.23954648,0.1367903,0.0,0.14890441,-0.031851858,-0.00033393124,-0.087930925,-1.5294534,0.020032808,-0.32580173,0.27493516,-0.28040862,-0.032077048,3.09515,-0.25554916,131.77486,0.11296423,0.30691093,0.436698,0.13948046,0.09132383,inf,inf,inf,inf,1,1,1,1,2,0,2,1,5,1,1,1
426797060,15154129,-33.9385715,18.8741563,-2.0805051,0.2593767,0.025349617,-0.23954648,0.1367903,0.0,0.14936194,-0.03381701,-0.0012133874,-0.08910145,-1.5294534,0.020032808,-0.32580173,-0.34789282,-0.3668907,-0.04455686,3.0952036,-0.25554916,131.77486,0.114173025,0.3078113,0.4372641,0.13992397,0.091447294,inf,inf,inf,inf,1,1,1,1,2,0,2,1,5,1,1,1
426807064,15154129,-33.9385715,18.8741563,-2.0790963,0.25893995,0.024232332,-0.23954648,0.1367903,0.0,0.15213926,-0.037527636,0.010958831,-0.077172965,-1.5294534,0.020032808,-0.32580173,0.7056708,-0.24155523,1.617114,3.0952296,-0.25554916,131.77486,0.115290314,0.30871677,0.4378316,0.14041214,0.09157059,inf,inf,inf,inf,1,1,1,1,2,0,2,1,5,1,1,1
426817068,15154129,-33.9385715,18.8741563,-2.077638,0.25835764,0.023627158,-0.23954648,0.1367903,0.0,0.15163587,-0.033736847,0.00947735,-0.078457795,-1.5294534,0.020032808,-0.32580173,-0.54029644,0.5361103,-1.0195202,3.0954728,-0.25554916,131.77486,0.11589548,0.29233208,0.4350115,0.1318411,0.089845866,inf,inf,inf,inf,1,1,1,1,2,0,2,1,5,1,1,1
426827073,15154129,-33.9385715,18.8741563,-2.0761998,0.25784335,0.022941947,-0.23954648,0.1367903,0.0,0.15153137,-0.02684713,-0.004913682,-0.092625014,-1.5294534,0.020032808,-0.32580173,0.30475438,0.60795367,-1.1152576,3.0955474,-0.25554916,131.77486,0.116580695,0.29314524,0.43556347,0.13228053,0.08996961,inf,inf,inf,inf,1,1,1,1,2,0,2,1,5,1,1,1
426837077,15154129,-33.9385715,18.8741563,-2.0747411,0.25737044,0.022215083,-0.23954648,0.1367903,0.0,0.15360661,-0.027764423,-0.0055989716,-0.0930612,-1.5294534,0.020032808,-0.32580173,0.21750073,-0.28792715,0.047145322,3.095884,-0.25554916,131.77486,0.11730756,0.2939633,0.43611678,0.13275358,0.090092994,inf,inf,inf,inf,1,1,1,1,2,0,2,1,5,1,1,1
426847083,15154129,-33.9385715,18.8741563,-2.073259,0.25688994,0.021049619,-0.23954648,0.1367903,0.0,0.153949,-0.028161159,-0.0034941286,-0.09116249,-1.5294534,0.020032808,-0.32580173,-0.28448066,0.11428109,0.2436009,3.0959268,-0.25554916,131.77486,0.11847302,0.29478642,0.43331215,0.1332087,0.0899535,inf,inf,inf,inf,1,1,1,1,2,0,2,1,5,1,1,1
426857086,15154129,-33.9385715,18.8741563,-2.0717878,0.2564048,0.019994978,-0.23954648,0.1367903,0.0,0.15338764,-0.030519372,0.008714172,-0.079115435,-1.5294534,0.020032808,-0.32580173,0.11601834,-0.12912025,1.4174117,3.0961072,-0.25554916,131.77486,0.11952767,0.29561454,0.43386397,0.13364857,0.09007738,inf,inf,inf,inf,1,1,1,1,2,0,2,1,5,1,1,1
426867091,15154129,-33.9385715,18.8741563,-2.0702887,0.25593388,0.019077279,-0.23954648,0.1367903,0.0,0.15617692,-0.025655106,0.011015656,-0.07693243,-1.5294534,0.020032808,-0.32580173,-0.10113091,0.82312495,-0.4612451,3.0963442,-0.25554916,131.77486,0.12044536,0.2964476,0.4344173,0.13413322,0.090200774,inf,inf,inf,inf,1,1,1,1,2,0,2,1,5,1,1,1
426877095,15154129,-33.9385715,18.8741563,-2.068806,0.25553274,0.018121773,-0.23954648,0.1367903,0.0,0.15302785,-0.019875715,-0.0029398205,-0.09096593,-1.5294534,0.020032808,-0.32580173,-0.014242115,0.533667,-1.3168828,3.096519,-0.25554916,131.77486,0.12140087,0.2972858,0.434972,0.1345789,0.0903238,inf,inf,inf,inf,1,1,1,1,2,0,2,1,5,1,1,1
426887099,15154129,-33.9385715,18.8741563,-2.0673168,0.25517178,0.017119475,-0.23954648,0.1367903,0.0,0.15537055,-0.020350382,-0.0044305976,-0.09249553,-1.5294534,0.020032808,-0.32580173,0.22665085,-0.3548241,0.27425322,3.0970256,-0.25554916,131.77486,0.12240317,0.298129,0.43552816,0.13504116,0.09044741,inf,inf,inf,inf,1,1,1,1,2,0,2,1,5,1,1,1
