timestamp,ref_timestamp,ref_lat,ref_lon,x,y,z,delta_xy[0],delta_xy[1],delta_z,vx,vy,vz,z_deriv,delta_vxy[0],delta_vxy[1],delta_vz,ax,ay,az,heading,delta_heading,ref_alt,dist_bottom,eph,epv,evh,evv,vxy_max,vz_max,hagl_min,hagl_max,xy_valid,z_valid,v_xy_valid,v_z_valid,xy_reset_counter,z_reset_counter,vxy_reset_counter,vz_reset_counter,heading_reset_counter,xy_global,z_global,dist_bottom_valid
25763670,15154129,-33.9385715,18.8741563,-2.2575228,0.76176304,-0.7742396,-0.23954648,0.1367903,0.0,-0.038015787,-0.0346794,0.03652488,0.05064438,-1.5294534,0.020032808,-0.32580173,-0.089868784,0.20778324,0.055473372,3.095,-0.023052674,131.77486,0.1,0.31390604,0.45843944,0.17101544,0.1149161,inf,inf,inf,inf,1,1,1,1,2,0,2,1,3,1,1,1
25773680,15154129,-33.9385715,18.8741563,-2.2582743,0.76138496,-0.774028,-0.23954648,0.1367903,0.0,-0.03844641,-0.03375125,0.037016958,0.050831057,-1.5294534,0.020032808,-0.32580173,-0.026581062,0.023079395,0.07672867,3.0929954,-0.023052674,131.77486,0.1,0.31494352,0.45916668,0.17172429,0.115110025,inf,inf,inf,inf,1,1,1,1,2,0,2,1,3,1,1,1
25783682,15154129,-33.9385715,18.8741563,-2.2590086,0.76100004,-0.77380645,-0.23954648,0.1367903,0.0,-0.039198603,-0.03457053,0.037531007,0.051046964,-1.5294534,0.020032808,-0.32580173,-0.08974607,-0.040218186,0.015984625,3.0910869,-0.023052674,131.77486,0.1,0.31598923,0.4598963,0.17242952,0.11530287,inf,inf,inf,inf,1,1,1,1,2,0,2,1,3,1,1,1
25793681,15154129,-33.9385715,18.8741563,-2.2597332,0.7606101,-0.7735856,-0.23954648,0.1367903,0.0,-0.0405215,-0.034091283,0.036340784,0.049565878,-1.5294534,0.020032808,-0.32580173,-0.11063298,0.04104608,-0.120838314,3.0893571,-0.023052674,131.77486,0.1,0.31704333,0.46062836,0.1731375,0.11549725,inf,inf,inf,inf,1,1,1,1,2,0,2,1,3,1,1,1
25803685,15154129,-33.9385715,18.8741563,-2.2604504,0.76021713,-0.7733673,-0.23954648,0.1367903,0.0,-0.04182649,-0.03421997,0.03577735,0.048722293,-1.5294534,0.020032808,-0.32580173,-0.12957478,-0.012402705,-0.01985479,3.0880551,-0.023052674,131.77486,0.1,0.31810582,0.45740607,0.1738416,0.1152908,inf,inf,inf,inf,1,1,1,1,2,0,2,1,3,1,1,1
25813691,15154129,-33.9385715,18.8741563,-2.261794,0.7601347,-0.7732706,-0.23954648,0.1367903,0.0,-0.04262487,-0.03304423,0.036438875,0.048979707,-1.5294534,0.020032808,-0.32580173,-0.020663936,0.14725626,0.08398635,3.0872133,-0.023052674,131.77486,0.1,0.2987619,0.45241046,0.15938102,0.111858405,inf,inf,inf,inf,1,1,1,1,2,0,2,1,3,1,1,1
25823694,15154129,-33.9385715,18.8741563,-2.2630978,0.7600561,-0.77315605,-0.23954648,0.1367903,0.0,-0.042077277,-0.030904414,0.038028833,0.050177805,-1.5294534,0.020032808,-0.32580173,0.08833679,0.20471452,0.1977187,3.0868187,-0.023052674,131.77486,0.1,0.29967657,0.45310697,0.16004564,0.11204971,inf,inf,inf,inf,1,1,1,1,2,0,2,1,3,1,1,1
25833698,15154129,-33.9385715,18.8741563,-2.2643535,0.75998443,-0.7730183,-0.23954648,0.1367903,0.0,-0.040841974,-0.028838137,0.039301023,0.05106984,-1.5294534,0.020032808,-0.32580173,0.15787162,0.22548705,0.087827094,3.0868423,-0.023052674,131.77486,0.1,0.3005989,0.4538058,0.16071057,0.11223954,inf,inf,inf,inf,1,1,1,1,2,0,2,1,3,1,1,1
25843704,15154129,-33.9385715,18.8741563,-2.2655547,0.7599236,-0.7728729,-0.23954648,0.1367903,0.0,-0.038884245,-0.026339356,0.038380448,0.049780656,-1.5294534,0.020032808,-0.32580173,0.19156024,0.23485304,-0.09244738,3.0872629,-0.023052674,131.77486,0.1,0.30152893,0.454507,0.16137612,0.11243055,inf,inf,inf,inf,1,1,1,1,2,0,2,1,3,1,1,1
25853707,15154129,-33.9385715,18.8741563,-2.266701,0.75987774,-0.7727322,-0.23954648,0.1367903,0.0,-0.03705016,-0.023644252,0.0371202,0.048163217,-1.5294534,0.020032808,-0.32580173,0.1974252,0.20517036,-0.11341305,3.088177,-0.023052674,131.77486,0.1,0.30246666,0.45521054,0.1620394,0.11262039,inf,inf,inf,inf,1,1,1,1,2,0,2,1,3,1,1,1
25863711,15154129,-33.9385715,18.8741563,-2.2677927,0.75983787,-0.772597,-0.23954648,0.1367903,0.0,-0.034963083,-0.022565434,0.035941966,0.04663861,-1.5294534,0.020032808,-0.32580173,0.2255509,0.080653325,-0.11835156,3.0896199,-0.023052674,131.77486,0.1,0.30341217,0.45591646,0.16270468,0.112811744,inf,inf,inf,inf,1,1,1,1,2,0,2,1,3,1,1,1
25873715,15154129,-33.9385715,18.8741563,-2.2688272,0.7598025,-0.7724707,-0.23954648,0.1367903,0.0,-0.032474764,-0.019873109,0.03417159,0.044531956,-1.5294534,0.020032808,-0.32580173,0.25112912,0.3519039,-0.18001589,3.0914485,-0.023052674,131.77486,0.1,0.30436543,0.45662472,0.16337201,0.11300249,inf,inf,inf,inf,1,1,1,1,2,0,2,1,3,1,1,1
25883720,15154129,-33.9385715,18.8741563,-2.2698078,0.75979,-0.7722719,-0.23954648,0.1367903,0.0,-0.030769076,-0.016198903,0.03272988,0.042848088,-1.5294534,0.020032808,-0.32580173,0.15261215,0.37037146,-0.13419259,3.0932617,-0.023052674,131.77486,0.1,0.30532655,0.45348036,0.16404854,0.11281828,inf,inf,inf,inf,1,1,1,1,2,0,2,1,3,1,1,1
25893724,15154129,-33.9385715,18.8741563,-2.2707403,0.759796,-0.7720881,-0.23954648,0.1367903,0.0,-0.028853927,-0.014278859,0.030406957,0.040289205,-1.5294534,0.020032808,-0.32580173,0.2259116,0.1490297,-0.25946945,3.0947914,-0.023052674,131.77486,0.1,0.30629554,0.45418736,0.16472012,0.11301009,inf,inf,inf,inf,1,1,1,1,2,0,2,1,3,1,1,1
25903730,15154129,-33.9385715,18.8741563,-2.271625,0.75981426,-0.7719285,-0.23954648,0.1367903,0.0,-0.027532501,-0.0113042975,0.027932737,0.03758449,-1.5294534,0.020032808,-0.32580173,0.14071995,0.33716568,-0.17259496,3.0958738,-0.023052674,131.77486,0.1,0.30727237,0.45489672,0.1654027,0.11320069,inf,inf,inf,inf,1,1,1,1,2,0,2,1,3,1,1,1
25913735,15154129,-33.9385715,18.8741563,-2.272468,0.759849,-0.77178675,-0.23954648,0.1367903,0.0,-0.026270572,-0.009963862,0.026001146,0.03542825,-1.5294534,0.020032808,-0.32580173,0.14372115,-0.015181495,-0.17934552,3.096327,-0.023052674,131.77486,0.1,0.30825722,0.45560846,0.16609336,0.11339221,inf,inf,inf,inf,1,1,1,1,2,0,2,1,3,1,1,1
25923738,15154129,-33.9385715,18.8741563,-2.273269,0.75987035,-0.7716603,-0.23954648,0.1367903,0.0,-0.025345115,-0.010886496,0.024001267,0.033208854,-1.5294534,0.020032808,-0.32580173,0.0029742247,-0.0038332727,-0.27298576,3.096127,-0.023052674,131.77486,0.1,0.30925,0.45632258,0.16677256,0.11358228,inf,inf,inf,inf,1,1,1,1,2,0,2,1,3,1,1,1
25933760,15154129,-33.9385715,18.8741563,-2.274042,0.7598897,-0.77155423,-0.23954648,0.1367903,0.0,-0.025531195,-0.0095954565,0.0220617,0.031055318,-1.5294534,0.020032808,-0.32580173,-0.006249151,0.0032615063,-0.12618548,3.095468,-0.023052674,131.77486,0.1,0.31025082,0.45703906,0.16746685,0.113774315,inf,inf,inf,inf,1,1,1,1,2,0,2,1,3,1,1,1
25943746,15154129,-33.9385715,18.8741563,-2.2747884,0.75986993,-0.7714636,-0.23954648,0.1367903,0.0,-0.02544959,-0.016748717,0.020805541,0.02958998,-1.5294534,0.020032808,-0.32580173,0.037213895,-0.7905199,-0.030618234,3.0946052,-0.023052674,131.77486,0.1,0.31125963,0.45775792,0.16816154,0.11396522,inf,inf,inf,inf,1,1,1,1,2,0,2,1,3,1,1,1
25953750,15154129,-33.9385715,18.8741563,-2.275514,0.75981545,-0.7713866,-0.23954648,0.1367903,0.0,-0.0266937,-0.014588149,0.018002804,0.026583329,-1.5294534,0.020032808,-0.32580173,-0.17712842,0.19132599,-0.33891648,3.0936906,-0.023052674,131.77486,0.1,0.3122766,0.45847917,0.16885658,0.1141576,inf,inf,inf,inf,1,1,1,1,2,0,2,1,3,1,1,1
25963754,15154129,-33.9385715,18.8741563,-2.2762198,0.7597184,-0.7713218,-0.23954648,0.1367903,0.0,-0.02591481,-0.024275962,0.018882263,0.027263517,-1.5294534,0.020032808,-0.32580173,0.13422194,-1.1222049,0.20321055,3.0928705,-0.023052674,131.77486,0.1,0.31330162,0.45920277,0.16956353,0.11434944,inf,inf,inf,inf,1,1,1,1,2,0,2,1,3,1,1,1
25973759,15154129,-33.9385715,18.8741563,-2.276904,0.75956976,-0.7711361,-0.23954648,0.1367903,0.0,-0.027580488,-0.021360116,0.016442211,0.024749031,-1.5294534,0.020032808,-0.32580173,-0.21815419,0.54129034,-0.44812363,3.0920546,-0.023052674,131.77486,0.1,0.3143349,0.45600843,0.17026943,0.11414939,inf,inf,inf,inf,1,1,1,1,2,0,2,1,3,1,1,1
25983764,15154129,-33.9385715,18.8741563,-2.2775688,0.75940144,-0.7709801,-0.23954648,0.1367903,0.0,-0.025873058,-0.028729314,0.01581542,0.024047377,-1.5294534,0.020032808,-0.32580173,0.24103591,-0.88612324,0.22724625,3.0915246,-0.023052674,131.77486,0.1,0.3153764,0.45673066,0.17097059,0.11434127,inf,inf,inf,inf,1,1,1,1,2,0,2,1,3,1,1,1
25993767,15154129,-33.9385715,18.8741563,-2.278208,0.7592072,-0.7708101,-0.23954648,0.1367903,0.0,-0.026688945,-0.024523214,0.017707892,0.025864111,-1.5294534,0.020032808,-0.32580173,0.041258376,0.3871541,0.082876675,3.090907,-0.023052674,131.77486,0.1,0.31642604,0.45745522,0.17166704,0.114531115,inf,inf,inf,inf,1,1,1,1,2,0,2,1,3,1,1,1
26003771,15154129,-33.9385715,18.8741563,-2.2788062,0.759012,-0.77064633,-0.23954648,0.1367903,0.0,-0.023787968,-0.025328757,0.015496269,0.023576448,-1.5294534,0.020032808,-0.32580173,0.023563527,0.32915583,-0.21605814,3.0904226,-0.023052674,131.77486,0.1,0.31748396,0.45818222,0.17236924,0.11472239,inf,inf,inf,inf,1,1,1,1,2,0,2,1,3,1,1,1
26013777,15154129,-33.9385715,18.8741563,-2.2799501,0.7585908,-0.7706689,-0.23954648,0.1367903,0.0,-0.023771621,-0.02389795,0.015066699,0.022891257,-1.5294534,0.020032808,-0.32580173,0.3717526,-0.51277536,-0.09196487,3.089862,-0.023052674,131.77486,0.1,0.29821268,0.45319206,0.15821813,0.11134027,inf,inf,inf,inf,1,1,1,1,2,0,2,1,3,1,1,1
26023780,15154129,-33.9385715,18.8741563,-2.2810376,0.75816983,-0.77069116,-0.23954648,0.1367903,0.0,-0.024373442,-0.018766645,0.015650557,0.023227124,-1.5294534,0.020032808,-0.32580173,-0.48106498,1.1372645,0.18098766,3.0893788,-0.023052674,131.77486,0.1,0.29912534,0.45388776,0.15889817,0.11153018,inf,inf,inf,inf,1,1,1,1,2,0,2,1,3,1,1,1
26033784,15154129,-33.9385715,18.8741563,-2.2820945,0.7577716,-0.77070093,-0.23954648,0.1367903,0.0,-0.02225184,-0.021984914,0.01565063,0.022985859,-1.5294534,0.020032808,-0.32580173,0.42739066,-0.26377568,-0.12018739,3.0891294,-0.023052674,131.77486,0.1,0.3000456,0.45458576,0.15957575,0.11171903,inf,inf,inf,inf,1,1,1,1,2,0,2,1,3,1,1,1
26043789,15154129,-33.9385715,18.8741563,-2.2831182,0.75738704,-0.77070653,-0.23954648,0.1367903,0.0,-0.025315197,-0.019724706,0.016418945,0.023520045,-1.5294534,0.020032808,-0.32580173,-0.13386776,-0.4784565,0.095794074,3.0890784,-0.023052674,131.77486,0.1,0.30097356,0.45528606,0.16026247,0.11190915,inf,inf,inf,inf,1,1,1,1,2,0,2,1,3,1,1,1
26053802,15154129,-33.9385715,18.8741563,-2.2841196,0.7570057,-0.7707112,-0.23954648,0.1367903,0.0,-0.027136257,-0.015086809,0.015906231,0.022780031,-1.5294534,0.020032808,-0.32580173,-0.46531534,0.9747284,0.12790403,3.089324,-0.023052674,131.77486,0.1,0.30190918,0.4559887,0.1609482,0.11209784,inf,inf,inf,inf,1,1,1,1,2,0,2,1,3,1,1,1
26063797,15154129,-33.9385715,18.8741563,-2.2850943,0.75663584,-0.77071804,-0.23954648,0.1367903,0.0,-0.026082043,-0.016274655,0.015539426,0.022184057,-1.5294534,0.020032808,-0.32580173,-0.012168215,0.60796374,-0.15903631,3.0899873,-0.023052674,131.77486,0.1,0.30285257,0.45285475,0.16164042,0.111915775,inf,inf,inf,inf,1,1,1,1,2,0,2,1,3,1,1,1
26073802,15154129,-33.9385715,18.8741563,-2.2860491,0.75630003,-0.77071774,-0.23954648,0.1367903,0.0,-0.02614818,-0.015314854,0.016099758,0.022522185,-1.5294534,0.020032808,-0.32580173,0.5960871,-0.6156197,-0.15293598,3.090909,-0.023052674,131.77486,0.1,0.30380377,0.45355612,0.16233651,0.11210631,inf,inf,inf,inf,1,1,1,1,2,0,2,1,3,1,1,1
26083806,15154129,-33.9385715,18.8741563,-2.2869668,0.756003,-0.77071726,-0.23954648,0.1367903,0.0,-0.028204694,-0.008160723,0.01713176,0.023338335,-1.5294534,0.020032808,-0.32580173,-0.22506511,0.034916602,0.33579051,3.0920162,-0.023052674,131.77486,0.1,0.30476275,0.45425978,0.16302672,0.112295635,inf,inf,inf,inf,1,1,1,1,2,0,2,1,3,1,1,1
26093810,15154129,-33.9385715,18.8741563,-2.2878501,0.7557452,-0.77070963,-0.23954648,0.1367903,0.0,-0.027681375,-0.0007130147,0.017316451,0.023313751,-1.5294534,0.020032808,-0.32580173,-0.4166849,1.3919222,0.3460772,3.0931897,-0.023052674,131.77486,0.1,0.30572963,0.4549658,0.16371748,0.11248651,inf,inf,inf,inf,1,1,1,1,2,0,2,1,3,1,1,1
26103815,15154129,-33.9385715,18.8741563,-2.2887003,0.7555377,-0.77069193,-0.23954648,0.1367903,0.0,-0.02621764,0.0045845467,0.015958512,0.021752805,-1.5294534,0.020032808,-0.32580173,-0.075375855,1.6777182,-0.30731136,3.0943286,-0.023052674,131.77486,0.1,0.3067043,0.45567414,0.16441125,0.11267607,inf,inf,inf,inf,1,1,1,1,2,0,2,1,3,1,1,1
26113818,15154129,-33.9385715,18.8741563,-2.2895184,0.7553985,-0.7706699,-0.23954648,0.1367903,0.0,-0.023543121,0.007950851,0.016267866,0.021865359,-1.5294534,0.020032808,-0.32580173,0.7415896,0.45575908,-0.38920295,3.0951788,-0.023052674,131.77486,0.1,0.307687,0.4563848,0.16509074,0.112867355,inf,inf,inf,inf,1,1,1,1,2,0,2,1,3,1,1,1
26123823,15154129,-33.9385715,18.8741563,-2.2902932,0.7553194,-0.7706442,-0.23954648,0.1367903,0.0,-0.023775885,0.01183486,0.01707658,0.022482477,-1.5294534,0.020032808,-0.32580173,0.32909217,-0.48761517,-0.15735613,3.0956626,-0.023052674,131.77486,0.1,0.30867755,0.45709783,0.16579276,0.11305719,inf,inf,inf,inf,1,1,1,1,2,0,2,1,3,1,1,1
26133832,15154129,-33.9385715,18.8741563,-2.2910461,0.7553003,-0.7706218,-0.23954648,0.1367903,0.0,-0.024969915,0.018548066,0.017311174,0.022531334,-1.5294534,0.020032808,-0.32580173,0.14198759,-0.5136899,0.25510064,3.0957081,-0.023052674,131.77486,0.1,0.30967614,0.4578132,0.16646016,0.113247775,inf,inf,inf,inf,1,1,1,1,2,0,2,1,3,1,1,1
26143879,15154129,-33.9385715,18.8741563,-2.2917697,0.7553391,-0.7706755,-0.23954648,0.1367903,0.0,-0.025395893,0.026047053,0.016739773,0.021706866,-1.5294534,0.020032808,-0.32580173,-0.28370687,0.10399928,0.40481755,3.0952868,-0.023052674,131.77486,0.1,0.3106826,0.45464587,0.16716415,0.11305193,inf,inf,inf,inf,1,1,1,1,2,0,2,1,3,1,1,1
26153900,15154129,-33.9385715,18.8741563,-2.292462,0.7554378,-0.77073187,-0.23954648,0.1367903,0.0,-0.024182903,0.033747893,0.015835624,0.020558372,-1.5294534,0.020032808,-0.32580173,-0.19676808,0.7168297,0.39581633,3.0943744,-0.023052674,131.77486,0.1,0.31169719,0.45535985,0.16784786,0.11324288,inf,inf,inf,inf,1,1,1,1,2,0,2,1,3,1,1,1
26163873,15154129,-33.9385715,18.8741563,-2.2931159,0.75558555,-0.77079135,-0.23954648,0.1367903,0.0,-0.022372054,0.04009082,0.014408327,0.018895175,-1.5294534,0.020032808,-0.32580173,-0.073703125,1.3438797,0.17927717,3.0931263,-0.023052674,131.77486,0.1,0.31271982,0.4560762,0.16853155,0.11343099,inf,inf,inf,inf,1,1,1,1,2,0,2,1,3,1,1,1
26173848,15154129,-33.9385715,18.8741563,-2.2937324,0.75577617,-0.77086276,-0.23954648,0.1367903,0.0,-0.02040932,0.044441763,0.011869848,0.016128557,-1.5294534,0.020032808,-0.32580173,0.12299511,1.5475314,-0.05819923,3.0916748,-0.023052674,131.77486,0.1,0.3137504,0.4567949,0.1692356,0.11362065,inf,inf,inf,inf,1,1,1,1,2,0,2,1,3,1,1,1
26183849,15154129,-33.9385715,18.8741563,-2.29431,0.75599384,-0.77094334,-0.23954648,0.1367903,0.0,-0.019206999,0.046637118,0.010795877,0.014834376,-1.5294534,0.020032808,-0.32580173,0.002906327,1.5442432,-0.058797557,3.0902386,-0.023052674,131.77486,0.1,0.31478918,0.45751593,0.16993383,0.113810256,inf,inf,inf,inf,1,1,1,1,2,0,2,1,3,1,1,1
26193854,15154129,-33.9385715,18.8741563,-2.2948515,0.7562264,-0.7710223,-0.23954648,0.1367903,0.0,-0.0174219,0.047209892,0.010314695,0.014140816,-1.5294534,0.020032808,-0.32580173,0.04836024,1.3538716,-0.1750917,3.0888941,-0.023052674,131.77486,0.1,0.31583604,0.45823932,0.17062978,0.113997616,inf,inf,inf,inf,1,1,1,1,2,0,2,1,3,1,1,1
26203857,15154129,-33.9385715,18.8741563,-2.295359,0.75646126,-0.77109563,-0.23954648,0.1367903,0.0,-0.016515546,0.046350293,0.010448751,0.01406992,-1.5294534,0.020032808,-0.32580173,-0.04184735,1.046502,-0.22838317,3.087712,-0.023052674,131.77486,0.1,0.3168911,0.4589651,0.17132269,0.114187516,inf,inf,inf,inf,1,1,1,1,2,0,2,1,3,1,1,1
26213861,15154129,-33.9385715,18.8741563,-2.296644,0.75676465,-0.7711108,-0.23954648,0.1367903,0.0,-0.015546516,0.043945063,0.010931253,0.014402149,-1.5294534,0.020032808,-0.32580173,0.07910317,0.6155664,-0.37708345,3.0866916,-0.023052674,131.77486,0.1,0.29767156,0.4539808,0.157358,0.11085049,inf,inf,inf,inf,1,1,1,1,2,0,2,1,3,1,1,1
26223867,15154129,-33.9385715,18.8741563,-2.2978814,0.7570434,-0.7711136,-0.23954648,0.1367903,0.0,-0.015882373,0.04084445,0.011741315,0.015066805,-1.5294534,0.020032808,-0.32580173,-0.024962727,0.32683888,-0.45752954,3.085843,-0.023052674,131.77486,0.1,0.29858303,0.4546756,0.15802582,0.11103726,inf,inf,inf,inf,1,1,1,1,2,0,2,1,3,1,1,1
26233870,15154129,-33.9385715,18.8741563,-2.299082,0.7572909,-0.7712909,-0.23954648,0.1367903,0.0,-0.016954705,0.03693479,0.01232849,0.015324698,-1.5294534,0.020032808,-0.32580173,-0.07189331,-0.0058599934,-0.5666651,3.085218,-0.023052674,131.77486,0.1,0.299502,0.45156676,0.15868491,0.11085763,inf,inf,inf,inf,1,1,1,1,2,0,2,1,3,1,1,1
26243875,15154129,-33.9385715,18.8741563,-2.3002574,0.7574978,-0.7714524,-0.23954648,0.1367903,0.0,-0.019394577,0.032222196,0.012926291,0.015606115,-1.5294534,0.020032808,-0.32580173,-0.20569523,-0.32790604,-0.6002097,3.084746,-0.023052674,131.77486,0.1,0.30042854,0.45226032,0.1593447,0.111044124,inf,inf,inf,inf,1,1,1,1,2,0,2,1,3,1,1,1
26253880,15154129,-33.9385715,18.8741563,-2.301416,0.75766104,-0.77160096,-0.23954648,0.1367903,0.0,-0.022001594,0.027343579,0.013101822,0.015477725,-1.5294534,0.020032808,-0.32580173,-0.2650956,-0.6497433,-0.6442982,3.0844116,-0.023052674,131.77486,0.1,0.30136263,0.45295614,0.16001083,0.11122963,inf,inf,inf,inf,1,1,1,1,2,0,2,1,3,1,1,1
26263884,15154129,-33.9385715,18.8741563,-2.302565,0.7577824,-0.771738,-0.23954648,0.1367903,0.0,-0.025353825,0.02269184,0.01352621,0.015610088,-1.5294534,0.020032808,-0.32580173,-0.339414,-0.9304615,-0.605151,3.0842235,-0.023052674,131.77486,0.1,0.3023043,0.45365426,0.16068324,0.111414365,inf,inf,inf,inf,1,1,1,1,2,0,2,1,3,1,1,1
26273888,15154129,-33.9385715,18.8741563,-2.3037045,0.7578658,-0.7718685,-0.23954648,0.1367903,0.0,-0.02808648,0.01810305,0.012964403,0.0147679,-1.5294534,0.020032808,-0.32580173,-0.3632222,-1.2925816,-0.66534907,3.0839875,-0.023052674,131.77486,0.1,0.30325362,0.4543547,0.16136593,0.11160125,inf,inf,inf,inf,1,1,1,1,2,0,2,1,3,1,1,1
26283892,15154129,-33.9385715,18.8741563,-2.304834,0.75790733,-0.7719975,-0.23954648,0.1367903,0.0,-0.030580452,0.013342902,0.013162331,0.014696523,-1.5294534,0.020032808,-0.32580173,-0.29347286,-1.5920516,-0.42580715,3.0836825,-0.023052674,131.77486,0.1,0.3042106,0.45505738,0.16203569,0.111786395,inf,inf,inf,inf,1,1,1,1,2,0,2,1,3,1,1,1
26293896,15154129,-33.9385715,18.8741563,-2.305951,0.7579035,-0.7721187,-0.23954648,0.1367903,0.0,-0.032746963,0.008507019,0.013547436,0.014823191,-1.5294534,0.020032808,-0.32580173,-0.24987389,-1.8128555,-0.301319,3.0833352,-0.023052674,131.77486,0.1,0.30517536,0.4557624,0.16270575,0.111972444,inf,inf,inf,inf,1,1,1,1,2,0,2,1,3,1,1,1
26303900,15154129,-33.9385715,18.8741563,-2.3070579,0.7578511,-0.7722259,-0.23954648,0.1367903,0.0,-0.034755345,0.004320639,0.015334101,0.016361361,-1.5294534,0.020032808,-0.32580173,-0.110115625,-1.7358809,0.011204687,3.0830553,-0.023052674,131.77486,0.1,0.30614778,0.45646968,0.16338281,0.11215743,inf,inf,inf,inf,1,1,1,1,2,0,2,1,3,1,1,1
26313906,15154129,-33.9385715,18.8741563,-2.3081543,0.7577523,-0.772314,-0.23954648,0.1367903,0.0,-0.036909394,6.269128e-05,0.016653161,0.017442074,-1.5294534,0.020032808,-0.32580173,-0.064319745,-1.663243,0.1333895,3.082867,-0.023052674,131.77486,0.1,0.30712804,0.45717928,0.16407233,0.11234406,inf,inf,inf,inf,1,1,1,1,2,0,2,1,3,1,1,1
26323909,15154129,-33.9385715,18.8741563,-2.3092453,0.7576058,-0.7725705,-0.23954648,0.1367903,0.0,-0.039502375,-0.003989924,0.018566508,0.018940173,-1.5294534,0.020032808,-0.32580173,0.011232267,-1.4606403,0.49867105,3.0827157,-0.023052674,131.77486,0.1,0.30811605,0.4540222,0.16476266,0.112148464,inf,inf,inf,inf,1,1,1,1,2,0,2,1,3,1,1,1
26333913,15154129,-33.9385715,18.8741563,-2.3103335,0.7574088,-0.77280295,-0.23954648,0.1367903,0.0,-0.042552665,-0.008925335,0.019517558,0.019493708,-1.5294534,0.020032808,-0.32580173,-0.07392846,-1.3532099,0.55811113,3.0826287,-0.023052674,131.77486,0.1,0.309112,0.4547304,0.16545552,0.11233528,inf,inf,inf,inf,1,1,1,1,2,0,2,1,3,1,1,1
26343918,15154129,-33.9385715,18.8741563,-2.3114204,0.757157,-0.7730177,-0.23954648,0.1367903,0.0,-0.045188457,-0.013798695,0.020413967,0.020009723,-1.5294534,0.020032808,-0.32580173,-0.03407281,-1.1168822,0.7336734,3.082564,-0.023052674,131.77486,0.1,0.31011587,0.45544088,0.16615392,0.112522945,inf,inf,inf,inf,1,1,1,1,2,0,2,1,3,1,1,1
26353922,15154129,-33.9385715,18.8741563,-2.3125029,0.7568549,-0.77321154,-0.23954648,0.1367903,0.0,-0.047801904,-0.018101137,0.02185414,0.021085516,-1.5294534,0.020032808,-0.32580173,-0.115407206,-0.879369,0.89594555,3.0824697,-0.023052674,131.77486,0.1,0.3111276,0.45615366,0.1668401,0.11270912,inf,inf,inf,inf,1,1,1,1,2,0,2,1,3,1,1,1
26363952,15154129,-33.9385715,18.8741563,-2.3135755,0.75651425,-0.7733727,-0.23954648,0.1367903,0.0,-0.04875111,-0.020670198,0.024305016,0.023187986,-1.5294534,0.020032808,-0.32580173,-0.019468026,-0.5496285,0.95968443,3.0823715,-0.023052674,131.77486,0.1,0.31214738,0.4568688,0.16752459,0.1128963,inf,inf,inf,inf,1,1,1,1,2,0,2,1,3,1,1,1
26373932,15154129,-33.9385715,18.8741563,-2.3146243,0.75615203,-0.7735,-0.23954648,0.1367903,0.0,-0.049149774,-0.021992432,0.026730454,0.025280254,-1.5294534,0.020032808,-0.32580173,-0.029606706,-0.3021756,0.98670083,3.0820649,-0.023052674,131.77486,0.1,0.31317505,0.4575862,0.16820133,0.113082215,inf,inf,inf,inf,1,1,1,1,2,0,2,1,3,1,1,1
26383934,15154129,-33.9385715,18.8741563,-2.3156443,0.75577474,-0.77359027,-0.23954648,0.1367903,0.0,-0.048034057,-0.022359787,0.029100543,0.027332066,-1.5294534,0.020032808,-0.32580173,0.07681431,0.037171077,0.90217745,3.0816104,-0.023052674,131.77486,0.1,0.31421077,0.45830595,0.16887784,0.11326923,inf,inf,inf,inf,1,1,1,1,2,0,2,1,3,1,1,1
26393939,15154129,-33.9385715,18.8741563,-2.3166332,0.7553832,-0.7736481,-0.23954648,0.1367903,0.0,-0.047424342,-0.023152193,0.030989153,0.02891682,-1.5294534,0.020032808,-0.32580173,0.10926369,0.3168783,0.82250565,3.0812354,-0.023052674,131.77486,0.1,0.3152544,0.45902804,0.16954967,0.11345508,inf,inf,inf,inf,1,1,1,1,2,0,2,1,3,1,1,1
26403943,15154129,-33.9385715,18.8741563,-2.3178477,0.7554729,-0.77396727,-0.23954648,0.1367903,0.0,-0.04608515,-0.02370889,0.03229736,0.029637165,-1.5294534,0.020032808,-0.32580173,0.12375119,0.6335664,0.675002,3.0810316,-0.023052674,131.77486,0.1,0.29633358,0.45031932,0.15595418,0.10982373,inf,inf,inf,inf,1,1,1,1,2,0,2,1,3,1,1,1
26413948,15154129,-33.9385715,18.8741563,-2.3190174,0.7555287,-0.77425146,-0.23954648,0.1367903,0.0,-0.04513433,-0.024974622,0.033857793,0.030636206,-1.5294534,0.020032808,-0.32580173,0.11967525,0.94838333,0.63863087,3.0810196,-0.023052674,131.77486,0.1,0.2972374,0.45100528,0.15658924,0.11000755,inf,inf,inf,inf,1,1,1,1,2,0,2,1,3,1,1,1
26423953,15154129,-33.9385715,18.8741563,-2.3201408,0.75555295,-0.7744935,-0.23954648,0.1367903,0.0,-0.043939073,-0.026074465,0.036217187,0.032459706,-1.5294534,0.020032808,-0.32580173,0.041716587,1.162556,0.54929656,3.0814452,-0.023052674,131.77486,0.1,0.2981486,0.45169353,0.1572301,0.1101926,inf,inf,inf,inf,1,1,1,1,2,0,2,1,3,1,1,1
26433957,15154129,-33.9385715,18.8741563,-2.3212185,0.75554913,-0.7746871,-0.23954648,0.1367903,0.0,-0.04258168,-0.02748569,0.039034568,0.034765795,-1.5294534,0.020032808,-0.32580173,0.013786308,1.1742506,0.40022317,3.0822833,-0.023052674,131.77486,0.1,0.29906723,0.45238402,0.15787107,0.110377505,inf,inf,inf,inf,1,1,1,1,2,0,2,1,3,1,1,1
26443962,15154129,-33.9385715,18.8741563,-2.3222473,0.7555238,-0.77483016,-0.23954648,0.1367903,0.0,-0.041348774,-0.028209673,0.04157958,0.036822908,-1.5294534,0.020032808,-0.32580173,-0.19793361,1.0987226,0.10235708,3.083412,-0.023052674,131.77486,0.1,0.29999328,0.45307675,0.15851767,0.11056187,inf,inf,inf,inf,1,1,1,1,2,0,2,1,3,1,1,1
26453966,15154129,-33.9385715,18.8741563,-2.3232293,0.75548303,-0.77493113,-0.23954648,0.1367903,0.0,-0.03907074,-0.02926125,0.04331043,0.038088765,-1.5294534,0.020032808,-0.32580173,-0.06142676,0.7750807,-0.13948596,3.0847518,-0.023052674,131.77486,0.1,0.3009268,0.4537718,0.15916316,0.11074689,inf,inf,inf,inf,1,1,1,1,2,0,2,1,3,1,1,1
26463972,15154129,-33.9385715,18.8741563,-2.3241568,0.7554219,-0.77499294,-0.23954648,0.1367903,0.0,-0.03690114,-0.030429602,0.04492033,0.03925544,-1.5294534,0.020032808,-0.32580173,-0.2161701,0.5866251,-0.4069403,3.086219,-0.023052674,131.77486,0.1,0.30186787,0.45446905,0.15980709,0.11093079,inf,inf,inf,inf,1,1,1,1,2,0,2,1,3,1,1,1
26473980,15154129,-33.9385715,18.8741563,-2.3250356,0.75533986,-0.7750171,-0.23954648,0.1367903,0.0,-0.03423784,-0.031644605,0.04712482,0.041038044,-1.5294534,0.020032808,-0.32580173,-0.035096336,0.4164375,-0.4492038,3.087768,-0.023052674,131.77486,0.1,0.30281648,0.4551686,0.16044712,0.111114934,inf,inf,inf,inf,1,1,1,1,2,0,2,1,3,1,1,1
26483978,15154129,-33.9385715,18.8741563,-2.3258617,0.7552319,-0.77500254,-0.23954648,0.1367903,0.0,-0.03190538,-0.03374988,0.049251832,0.042763703,-1.5294534,0.020032808,-0.32580173,-0.07908312,0.21485755,-0.53888005,3.0894148,-0.023052674,131.77486,0.1,0.30377257,0.45587042,0.16108945,0.1112983,inf,inf,inf,inf,1,1,1,1,2,0,2,1,3,1,1,1
26493992,15154129,-33.9385715,18.8741563,-2.326643,0.755093,-0.775088,-0.23954648,0.1367903,0.0,-0.029486474,-0.035772335,0.051646642,0.04463663,-1.5294534,0.020032808,-0.32580173,0.12618673,0.149569,-0.5095275,3.0910254,-0.023052674,131.77486,0.1,0.30473626,0.45273858,0.16173139,0.11110815,inf,inf,inf,inf,1,1,1,1,2,0,2,1,3,1,1,1
26503987,15154129,-33.9385715,18.8741563,-2.3273838,0.7549241,-0.7751319,-0.23954648,0.1367903,0.0,-0.02859051,-0.038565207,0.053943165,0.046437003,-1.5294534,0.020032808,-0.32580173,0.039735753,-0.10167084,-0.48866645,3.0926754,-0.023052674,131.77486,0.1,0.30570748,0.453439,0.16237745,0.11129171,inf,inf,inf,inf,1,1,1,1,2,0,2,1,3,1,1,1
26513993,15154129,-33.9385715,18.8741563,-2.328098,0.75472313,-0.77513653,-0.23954648,0.1367903,0.0,-0.028191803,-0.04064475,0.055666912,0.047689002,-1.5294534,0.020032808,-0.32580173,0.13983615,-0.14479172,-0.51350665,3.0941863,-0.023052674,131.77486,0.1,0.3066864,0.4541417,0.16302745,0.111476295,inf,inf,inf,inf,1,1,1,1,2,0,2,1,3,1,1,1
26523995,15154129,-33.9385715,18.8741563,-2.3287928,0.7545019,-0.7751094,-0.23954648,0.1367903,0.0,-0.029483033,-0.042318508,0.056784805,0.04835868,-1.5294534,0.020032808,-0.32580173,-0.035667103,-0.42527023,-0.5408607,3.095422,-0.023052674,131.77486,0.1,0.30767298,0.4548467,0.16367638,0.11166055,inf,inf,inf,inf,1,1,1,1,2,0,2,1,3,1,1,1
26534001,15154129,-33.9385715,18.8741563,-2.3294756,0.7542626,-0.77505916,-0.23954648,0.1367903,0.0,-0.03011066,-0.043380227,0.05700073,0.04814918,-1.5294534,0.020032808,-0.32580173,0.07360136,-0.556394,-0.55318284,3.0961823,-0.023052674,131.77486,0.1,0.30866718,0.45555395,0.16432308,0.1118431,inf,inf,inf,inf,1,1,1,1,2,0,2,1,3,1,1,1
26544005,15154129,-33.9385715,18.8741563,-2.3301442,0.75401455,-0.7749948,-0.23954648,0.1367903,0.0,-0.031279832,-0.0434355,0.05675373,0.047498632,-1.5294534,0.020032808,-0.32580173,-0.035294406,-0.6634813,-0.4797073,3.0963683,-0.023052674,131.77486,0.1,0.30966914,0.4562635,0.16497192,0.1120263,inf,inf,inf,inf,1,1,1,1,2,0,2,1,3,1,1,1
26554014,15154129,-33.9385715,18.8741563,-2.3307955,0.7537643,-0.7749146,-0.23954648,0.1367903,0.0,-0.031011946,-0.042910773,0.057734184,0.048096098,-1.5294534,0.020032808,-0.32580173,0.10788618,-0.7515678,-0.17889078,3.0959885,-0.023052674,131.77486,0.1,0.31067872,0.4569753,0.1656235,0.11220843,inf,inf,inf,inf,1,1,1,1,2,0,2,1,3,1,1,1
26564012,15154129,-33.9385715,18.8741563,-2.3314238,0.7535173,-0.7748128,-0.23954648,0.1367903,0.0,-0.030758003,-0.0418864,0.058721893,0.048721153,-1.5294534,0.020032808,-0.32580173,0.11285554,-0.79689485,-0.028709244,3.095037,-0.023052674,131.77486,0.1,0.31169617,0.45768943,0.16628069,0.112391934,inf,inf,inf,inf,1,1,1,1,2,0,2,1,3,1,1,1
26574075,15154129,-33.9385715,18.8741563,-2.3320272,0.7532716,-0.774686,-0.23954648,0.1367903,0.0,-0.029485306,-0.041027885,0.060161225,0.04981705,-1.5294534,0.020032808,-0.32580173,0.25414142,-0.84131974,0.2612713,3.093725,-0.023052674,131.77486,0.1,0.31272128,0.4584058,0.16694024,0.11257463,inf,inf,inf,inf,1,1,1,1,2,0,2,1,3,1,1,1
26584088,15154129,-33.9385715,18.8741563,-2.3326035,0.75302666,-0.7746808,-0.23954648,0.1367903,0.0,-0.028920012,-0.040703867,0.061532393,0.05071743,-1.5294534,0.020032808,-0.32580173,0.29577652,-0.8655267,0.38827708,3.092295,-0.023052674,131.77486,0.1,0.31375432,0.4552245,0.16760048,0.11236861,inf,inf,inf,inf,1,1,1,1,2,0,2,1,3,1,1,1
26594062,15154129,-33.9385715,18.8741563,-2.333155,0.7527774,-0.7746565,-0.23954648,0.1367903,0.0,-0.028355557,-0.040769823,0.06166177,0.05039983,-1.5294534,0.020032808,-0.32580173,0.3401963,-0.85002893,0.4478067,3.0909433,-0.023052674,131.77486,0.1,0.31479508,0.45593935,0.16825569,0.11255075,inf,inf,inf,inf,1,1,1,1,2,0,2,1,3,1,1,1
26604030,15154129,-33.9385715,18.8741563,-2.3336883,0.75251424,-0.7746194,-0.23954648,0.1367903,0.0,-0.028804094,-0.04146308,0.061107922,0.049422827,-1.5294534,0.020032808,-0.32580173,0.24853888,-0.715698,0.5080486,3.089763,-0.023052674,131.77486,0.1,0.3158438,0.45665652,0.16891085,0.11273371,inf,inf,inf,inf,1,1,1,1,2,0,2,1,3,1,1,1
26614034,15154129,-33.9385715,18.8741563,-2.3353045,0.7522668,-0.7746426,-0.23954648,0.1367903,0.0,-0.030087724,-0.041839488,0.059768427,0.047611304,-1.5294534,0.020032808,-0.32580173,0.095494606,-0.5064618,0.48768064,3.0888224,-0.023052674,131.77486,0.1,0.29671532,0.45181948,0.15538323,0.109521136,inf,inf,inf,inf,1,1,1,1,2,0,2,1,3,1,1,1
26624041,15154129,-33.9385715,18.8741563,-2.3368819,0.7520065,-0.7746603,-0.23954648,0.1367903,0.0,-0.03182347,-0.04216411,0.058457807,0.04585365,-1.5294534,0.020032808,-0.32580173,-0.083685555,-0.41240245,0.5037842,3.0881588,-0.023052674,131.77486,0.1,0.29762408,0.45250684,0.15600988,0.109701395,inf,inf,inf,inf,1,1,1,1,2,0,2,1,3,1,1,1
26634044,15154129,-33.9385715,18.8741563,-2.3384254,0.7517304,-0.7746713,-0.23954648,0.1367903,0.0,-0.033580713,-0.042636797,0.057635702,0.04460885,-1.5294534,0.020032808,-0.32580173,-0.19974247,-0.23219265,0.5788055,3.0877798,-0.023052674,131.77486,0.1,0.29854012,0.45319647,0.15664007,0.10988268,inf,inf,inf,inf,1,1,1,1,2,0,2,1,3,1,1,1
26644047,15154129,-33.9385715,18.8741563,-2.3399322,0.7514483,-0.7746695,-0.23954648,0.1367903,0.0,-0.034341924,-0.041591063,0.05704968,0.043623514,-1.5294534,0.020032808,-0.32580173,-0.20716304,-0.004049246,0.50764245,3.087625,-0.023052674,131.77486,0.1,0.29946345,0.45388824,0.15726687,0.11006273,inf,inf,inf,inf,1,1,1,1,2,0,2,1,3,1,1,1
26654053,15154129,-33.9385715,18.8741563,-2.3413956,0.75117034,-0.7746554,-0.23954648,0.1367903,0.0,-0.034401067,-0.040196598,0.056708053,0.042905163,-1.5294534,0.020032808,-0.32580173,-0.2549426,0.070441164,0.5358653,3.0876184,-0.023052674,131.77486,0.1,0.30039415,0.45458227,0.15789527,0.11024383,inf,inf,inf,inf,1,1,1,1,2,0,2,1,3,1,1,1
26664057,15154129,-33.9385715,18.8741563,-2.3428102,0.7509044,-0.7747297,-0.23954648,0.1367903,0.0,-0.03332975,-0.037382394,0.05580936,0.041548535,-1.5294534,0.020032808,-0.32580173,-0.15391333,0.3062227,0.34922707,3.087806,-0.023052674,131.77486,0.1,0.30133215,0.45147493,0.1585229,0.11005654,inf,inf,inf,inf,1,1,1,1,2,0,2,1,3,1,1,1
26674060,15154129,-33.9385715,18.8741563,-2.344172,0.75065666,-0.77478963,-0.23954648,0.1367903,0.0,-0.031912614,-0.034699816,0.055197638,0.040504377,-1.5294534,0.020032808,-0.32580173,-0.043806974,0.39608788,0.2710299,3.0881412,-0.023052674,131.77486,0.1,0.30227754,0.4521676,0.15915163,0.110237576,inf,inf,inf,inf,1,1,1,1,2,0,2,1,3,1,1,1
26684065,15154129,-33.9385715,18.8741563,-2.3454785,0.75042516,-0.77483636,-0.23954648,0.1367903,0.0,-0.030158568,-0.03164975,0.05383228,0.03873073,-1.5294534,0.020032808,-0.32580173,0.05158964,0.6534679,0.013677599,3.0885985,-0.023052674,131.77486,0.1,0.3032303,0.4528625,0.15978496,0.11041792,inf,inf,inf,inf,1,1,1,1,2,0,2,1,3,1,1,1
26694068,15154129,-33.9385715,18.8741563,-2.3467324,0.75020987,-0.7748727,-0.23954648,0.1367903,0.0,-0.028918384,-0.028791036,0.05276573,0.037279557,-1.5294534,0.020032808,-0.32580173,0.038025063,0.8997353,-0.13226841,3.0891755,-0.023052674,131.77486,0.1,0.30419055,0.45355967,0.16042459,0.11059947,inf,inf,inf,inf,1,1,1,1,2,0,2,1,3,1,1,1
26704073,15154129,-33.9385715,18.8741563,-2.3479357,0.7500076,-0.77490044,-0.23954648,0.1367903,0.0,-0.027721468,-0.026841069,0.05138908,0.035541076,-1.5294534,0.020032808,-0.32580173,0.0009658224,0.9740332,-0.28836802,3.0898972,-0.023052674,131.77486,0.1,0.3051583,0.45425907,0.16107208,0.11078142,inf,inf,inf,inf,1,1,1,1,2,0,2,1,3,1,1,1
26714077,15154129,-33.9385715,18.8741563,-2.3490937,0.7498133,-0.7749228,-0.23954648,0.1367903,0.0,-0.027442908,-0.02529287,0.049892083,0.033703756,-1.5294534,0.020032808,-0.32580173,-0.14394736,1.0407954,-0.41706294,3.0907502,-0.023052674,131.77486,0.1,0.30613348,0.4549607,0.16172317,0.11096254,inf,inf,inf,inf,1,1,1,1,2,0,2,1,3,1,1,1
26724081,15154129,-33.9385715,18.8741563,-2.3502116,0.74962634,-0.77493715,-0.23954648,0.1367903,0.0,-0.026940638,-0.024381716,0.04868298,0.032175474,-1.5294534,0.020032808,-0.32580173,-0.17478007,0.90571696,-0.5773769,3.0916562,-0.023052674,131.77486,0.1,0.30711633,0.45566458,0.16237135,0.111143954,inf,inf,inf,inf,1,1,1,1,2,0,2,1,3,1,1,1
26734086,15154129,-33.9385715,18.8741563,-2.3512933,0.7494391,-0.77494663,-0.23954648,0.1367903,0.0,-0.02656153,-0.02441635,0.047517586,0.030710958,-1.5294534,0.020032808,-0.32580173,-0.111337274,0.72970325,-0.5938839,3.092643,-0.023052674,131.77486,0.1,0.30810666,0.45637068,0.1630193,0.11132433,inf,inf,inf,inf,1,1,1,1,2,0,2,1,3,1,1,1
26744090,15154129,-33.9385715,18.8741563,-2.3523378,0.749249,-0.7749469,-0.23954648,0.1367903,0.0,-0.025498684,-0.024985118,0.04698147,0.029895334,-1.5294534,0.020032808,-0.32580173,0.050858624,0.4149494,-0.5968175,3.093848,-0.023052674,131.77486,0.1,0.30910465,0.45707905,0.16367133,0.11150576,inf,inf,inf,inf,1,1,1,1,2,0,2,1,3,1,1,1
26754095,15154129,-33.9385715,18.8741563,-2.3533425,0.7490509,-0.77506095,-0.23954648,0.1367903,0.0,-0.024082156,-0.025147267,0.046702046,0.029228067,-1.5294534,0.020032808,-0.32580173,0.23552866,0.3784711,-0.58539677,3.0952456,-0.023052674,131.77486,0.1,0.3101102,0.45392329,0.16431963,0.111303635,inf,inf,inf,inf,1,1,1,1,2,0,2,1,3,1,1,1
26764099,15154129,-33.9385715,18.8741563,-2.354304,0.7488509,-0.7751571,-0.23954648,0.1367903,0.0,-0.022288574,-0.024916619,0.046429876,0.028591804,-1.5294534,0.020032808,-0.32580173,0.38872373,0.27400345,-0.6191417,3.096793,-0.023052674,131.77486,0.1,0.31112352,0.45463014,0.1649756,0.11148531,inf,inf,inf,inf,1,1,1,1,2,0,2,1,3,1,1,1
26774104,15154129,-33.9385715,18.8741563,-2.3552203,0.7486447,-0.7752387,-0.23954648,0.1367903,0.0,-0.02015393,-0.024767492,0.04607557,0.027895987,-1.5294534,0.020032808,-0.32580173,0.56751037,0.36190045,-0.57002616,3.0983589,-0.023052674,131.77486,0.1,0.3121444,0.45533922,0.16563404,0.11166642,inf,inf,inf,inf,1,1,1,1,2,0,2,1,3,1,1,1
26784108,15154129,-33.9385715,18.8741563,-2.35609,0.74843633,-0.77530575,-0.23954648,0.1367903,0.0,-0.018338561,-0.024557672,0.045936268,0.027437195,-1.5294534,0.020032808,-0.32580173,0.5839916,0.31861606,-0.48791048,3.0998523,-0.023052674,131.77486,0.1,0.31317312,0.45605063,0.16630258,0.11184896,inf,inf,inf,inf,1,1,1,1,2,0,2,1,3,1,1,1
26794111,15154129,-33.9385715,18.8741563,-2.3569155,0.7482219,-0.7753596,-0.23954648,0.1367903,0.0,-0.016893566,-0.02494128,0.04565231,0.026854943,-1.5294534,0.020032808,-0.32580173,0.48851946,0.2715759,-0.39807677,3.1011424,-0.023052674,131.77486,0.1,0.3142096,0.45676428,0.16697256,0.11203149,inf,inf,inf,inf,1,1,1,1,2,0,2,1,3,1,1,1
26804116,15154129,-33.9385715,18.8741563,-2.3583846,0.747989,-0.7755473,-0.23954648,0.1367903,0.0,-0.015720049,-0.025511572,0.045418102,0.026192125,-1.5294534,0.020032808,-0.32580173,0.4380224,0.09041668,-0.25290364,3.102201,-0.023052674,131.77486,0.1,0.29538614,0.45197353,0.15385844,0.10887846,inf,inf,inf,inf,1,1,1,1,2,0,2,1,3,1,1,1
26814120,15154129,-33.9385715,18.8741563,-2.3597963,0.74775124,-0.7757209,-0.23954648,0.1367903,0.0,-0.015141509,-0.026158316,0.04484065,0.025212262,-1.5294534,0.020032808,-0.32580173,0.34726548,-0.13600792,-0.15770543,3.1029406,-0.023052674,131.77486,0.1,0.29628682,0.4526579,0.1544921,0.10905825,inf,inf,inf,inf,1,1,1,1,2,0,2,1,3,1,1,1
26824124,15154129,-33.9385715,18.8741563,-2.3611588,0.7475074,-0.77588403,-0.23954648,0.1367903,0.0,-0.015264722,-0.027314242,0.043960113,0.023954093,-1.5294534,0.020032808,-0.32580173,0.24700479,-0.47612375,-0.080901295,3.1033387,-0.023052674,131.77486,0.1,0.2971947,0.4533445,0.1551251,0.109237,inf,inf,inf,inf,1,1,1,1,2,0,2,1,3,1,1,1
26834129,15154129,-33.9385715,18.8741563,-2.3624806,0.74725646,-0.7761322,-0.23954648,0.1367903,0.0,-0.016318008,-0.027985942,0.04300093,0.022546569,-1.5294534,0.020032808,-0.32580173,0.059896417,-0.6682117,-0.007398677,3.103392,-0.023052674,131.77486,0.1,0.2981098,0.45026052,0.15576582,0.109055825,inf,inf,inf,inf,1,1,1,1,2,0,2,1,3,1,1,1
26844133,15154129,-33.9385715,18.8741563,-2.3637693,0.7469978,-0.77637273,-0.23954648,0.1367903,0.0,-0.017715465,-0.029089542,0.042076625,0.021201007,-1.5294534,0.020032808,-0.32580173,-0.038750753,-0.9066385,0.1929135,3.1030407,-0.023052674,131.77486,0.1,0.29903215,0.45094573,0.15640475,0.10923444,inf,inf,inf,inf,1,1,1,1,2,0,2,1,3,1,1,1
26854137,15154129,-33.9385715,18.8741563,-2.3650293,0.7467294,-0.77660275,-0.23954648,0.1367903,0.0,-0.019233212,-0.029611062,0.04117345,0.019903138,-1.5294534,0.020032808,-0.32580173,-0.11693887,-0.9204639,0.27208686,3.1023443,-0.023052674,131.77486,0.1,0.29996184,0.45163316,0.15705153,0.109414235,inf,inf,inf,inf,1,1,1,1,2,0,2,1,3,1,1,1
26864141,15154129,-33.9385715,18.8741563,-2.3662612,0.7464479,-0.7768191,-0.23954648,0.1367903,0.0,-0.020339172,-0.03110674,0.04143554,0.019795945,-1.5294534,0.020032808,-0.32580173,-0.10607459,-1.0210665,0.5341488,3.1014218,-0.023052674,131.77486,0.1,0.30089882,0.45232278,0.15769607,0.10959304,inf,inf,inf,inf,1,1,1,1,2,0,2,1,3,1,1,1
26874145,15154129,-33.9385715,18.8741563,-2.3674622,0.74614966,-0.7770149,-0.23954648,0.1367903,0.0,-0.021099584,-0.032152914,0.041669145,0.019684868,-1.5294534,0.020032808,-0.32580173,-0.13326511,-0.9208378,0.5992731,3.1004913,-0.023052674,131.77486,0.1,0.3018432,0.45301464,0.15834431,0.10977297,inf,inf,inf,inf,1,1,1,1,2,0,2,1,3,1,1,1
26884152,15154129,-33.9385715,18.8741563,-2.3686352,0.7458341,-0.77718693,-0.23954648,0.1367903,0.0,-0.02225465,-0.03356744,0.042600278,0.020294989,-1.5294534,0.020032808,-0.32580173,-0.16188508,-0.8624499,0.7178336,3.099817,-0.023052674,131.77486,0.1,0.30279502,0.4537087,0.15899393,0.109953016,inf,inf,inf,inf,1,1,1,1,2,0,2,1,3,1,1,1
26894154,15154129,-33.9385715,18.8741563,-2.369776,0.7455051,-0.7773297,-0.23954648,0.1367903,0.0,-0.022562627,-0.034173496,0.043739922,0.021136004,-1.5294534,0.020032808,-0.32580173,-0.18519631,-0.74734867,0.69220144,3.0993943,-0.023052674,131.77486,0.1,0.30375418,0.45440492,0.15964083,0.11013212,inf,inf,inf,inf,1,1,1,1,2,0,2,1,3,1,1,1
26904160,15154129,-33.9385715,18.8741563,-2.3708863,0.74517024,-0.77744305,-0.23954648,0.1367903,0.0,-0.023133716,-0.033820108,0.04443599,0.02155536,-1.5294534,0.020032808,-0.32580173,-0.20870005,-0.5746355,0.54923403,3.0991633,-0.023052674,131.77486,0.1,0.30472085,0.4551034,0.16028936,0.1103122,inf,inf,inf,inf,1,1,1,1,2,0,2,1,3,1,1,1
26914188,15154129,-33.9385715,18.8741563,-2.3719647,0.74484134,-0.7775322,-0.23954648,0.1367903,0.0,-0.023882471,-0.032629576,0.04458939,0.021453086,-1.5294534,0.020032808,-0.32580173,-0.4203027,-0.5609267,0.41544694,3.099029,-0.023052674,131.77486,0.1,0.30569497,0.45580405,0.16093335,0.11049114,inf,inf,inf,inf,1,1,1,1,2,0,2,1,3,1,1,1
26924167,15154129,-33.9385715,18.8741563,-2.3730175,0.74452007,-0.77778625,-0.23954648,0.1367903,0.0,-0.025104744,-0.031074291,0.044963315,0.02140465,-1.5294534,0.020032808,-0.32580173,-0.5011881,-0.3266001,0.31280276,3.098867,-0.023052674,131.77486,0.1,0.30667663,0.45267272,0.16157949,0.11029524,inf,inf,inf,inf,1,1,1,1,2,0,2,1,3,1,1,1
26934172,15154129,-33.9385715,18.8741563,-2.3740492,0.7442091,-0.77800846,-0.23954648,0.1367903,0.0,-0.026224175,-0.0293098,0.045890603,0.021937009,-1.5294534,0.020032808,-0.32580173,-0.531262,-0.20143682,0.28163344,3.0986433,-0.023052674,131.77486,0.1,0.30766574,0.4533719,0.16222581,0.11047387,inf,inf,inf,inf,1,1,1,1,2,0,2,1,3,1,1,1
26944176,15154129,-33.9385715,18.8741563,-2.375064,0.7439063,-0.7781938,-0.23954648,0.1367903,0.0,-0.027455768,-0.027753588,0.04758917,0.023267332,-1.5294534,0.020032808,-0.32580173,-0.44093457,0.010962085,0.2665012,3.0982955,-0.023052674,131.77486,0.1,0.30866244,0.4540733,0.16287579,0.11065343,inf,inf,inf,inf,1,1,1,1,2,0,2,1,3,1,1,1
26954180,15154129,-33.9385715,18.8741563,-2.3760645,0.7436114,-0.7783346,-0.23954648,0.1367903,0.0,-0.028907973,-0.0262717,0.050003286,0.025338477,-1.5294534,0.020032808,-0.32580173,-0.33646023,0.18428946,0.2044327,3.097911,-0.023052674,131.77486,0.1,0.30966666,0.45477694,0.16352409,0.110832006,inf,inf,inf,inf,1,1,1,1,2,0,2,1,3,1,1,1
26964184,15154129,-33.9385715,18.8741563,-2.3770564,0.7433153,-0.7784313,-0.23954648,0.1367903,0.0,-0.030369597,-0.025757534,0.052141365,0.027158294,-1.5294534,0.020032808,-0.32580173,-0.10642158,0.43362203,0.13009223,3.0974047,-0.023052674,131.77486,0.1,0.31067854,0.4554828,0.16417547,0.11101161,inf,inf,inf,inf,1,1,1,1,2,0,2,1,3,1,1,1
26974198,15154129,-33.9385715,18.8741563,-2.3780425,0.7430142,-0.7784808,-0.23954648,0.1367903,0.0,-0.032427873,-0.025338784,0.0547875,0.029509932,-1.5294534,0.020032808,-0.32580173,0.015768554,0.68968993,0.06254656,3.096943,-0.023052674,131.77486,0.1,0.31169808,0.4561909,0.16482753,0.1111912,inf,inf,inf,inf,1,1,1,1,2,0,2,1,3,1,1,1
26984193,15154129,-33.9385715,18.8741563,-2.379023,0.7427084,-0.77848715,-0.23954648,0.1367903,0.0,-0.034437455,-0.024943741,0.05636294,0.030813225,-1.5294534,0.020032808,-0.32580173,0.12795211,0.94758856,-0.21949072,3.0966094,-0.023052674,131.77486,0.1,0.31272516,0.45690122,0.16548088,0.11137011,inf,inf,inf,inf,1,1,1,1,2,0,2,1,3,1,1,1
26994198,15154129,-33.9385715,18.8741563,-2.38,0.7423955,-0.7784571,-0.23954648,0.1367903,0.0,-0.037127815,-0.025139038,0.05773895,0.03193906,-1.5294534,0.020032808,-0.32580173,0.015872227,1.0820798,-0.33217964,3.0963666,-0.023052674,131.77486,0.1,0.31376,0.45761377,0.1661384,0.111550115,inf,inf,inf,inf,1,1,1,1,2,0,2,1,3,1,1,1
27004202,15154129,-33.9385715,18.8741563,-2.3811831,0.7421472,-0.7784684,-0.23954648,0.1367903,0.0,-0.039381497,-0.02543633,0.05875701,0.03265212,-1.5294534,0.020032808,-0.32580173,-0.016459819,1.215266,-0.4471266,3.096287,-0.023052674,131.77486,0.1,0.2949541,0.45282653,0.15316793,0.108436674,inf,inf,inf,inf,1,1,1,1,2,0,2,1,3,1,1,1
27014206,15154129,-33.9385715,18.8741563,-2.382356,0.74188787,-0.77868706,-0.23954648,0.1367903,0.0,-0.042254604,-0.02641048,0.05958722,0.03296172,-1.5294534,0.020032808,-0.32580173,-0.16444157,1.1152194,-0.45351627,3.0964081,-0.023052674,131.77486,0.1,0.2958543,0.44975033,0.15379259,0.108257465,inf,inf,inf,inf,1,1,1,1,2,0,2,1,3,1,1,1
27024213,15154129,-33.9385715,18.8741563,-2.383522,0.74161345,-0.7788729,-0.23954648,0.1367903,0.0,-0.044664904,-0.027540736,0.060075447,0.032962326,-1.5294534,0.020032808,-0.32580173,-0.13426065,1.0605721,-0.42822406,3.0966961,-0.023052674,131.77486,0.1,0.2967616,0.4504304,0.1544178,0.10843462,inf,inf,inf,inf,1,1,1,1,2,0,2,1,3,1,1,1
27034246,15154129,-33.9385715,18.8741563,-2.384686,0.74132437,-0.7790248,-0.23954648,0.1367903,0.0,-0.047438364,-0.029126933,0.06112804,0.033559315,-1.5294534,0.020032808,-0.32580173,-0.0775732,0.82402027,-0.27878255,3.0970953,-0.023052674,131.77486,0.1,0.2976761,0.4511127,0.15503825,0.108612135,inf,inf,inf,inf,1,1,1,1,2,0,2,1,3,1,1,1
27044243,15154129,-33.9385715,18.8741563,-2.3858438,0.74102074,-0.77914566,-0.23954648,0.1367903,0.0,-0.049099416,-0.030665487,0.062047604,0.034054186,-1.5294534,0.020032808,-0.32580173,0.1835261,0.6279858,-0.1775086,3.0975125,-0.023052674,131.77486,0.1,0.2985977,0.45179713,0.15565938,0.108788796,inf,inf,inf,inf,1,1,1,1,2,0,2,1,3,1,1,1
27054232,15154129,-33.9385715,18.8741563,-2.3869932,0.74070466,-0.77924085,-0.23954648,0.1367903,0.0,-0.05121668,-0.031785578,0.061921634,0.03353316,-1.5294534,0.020032808,-0.32580173,0.24800217,0.46038473,-0.1614702,3.0978963,-0.023052674,131.77486,0.1,0.29952654,0.45248374,0.1562791,0.10896596,inf,inf,inf,inf,1,1,1,1,2,0,2,1,3,1,1,1
27064234,15154129,-33.9385715,18.8741563,-2.3881297,0.7403779,-0.7793137,-0.23954648,0.1367903,0.0,-0.05237027,-0.032613583,0.06205241,0.03329737,-1.5294534,0.020032808,-0.32580173,0.29258823,0.33290884,-0.016866812,3.0981715,-0.023052674,131.77486,0.1,0.3004626,0.45317256,0.1568999,0.10914288,inf,inf,inf,inf,1,1,1,1,2,0,2,1,3,1,1,1
27074232,15154129,-33.9385715,18.8741563,-2.3892505,0.74004346,-0.7793628,-0.23954648,0.1367903,0.0,-0.05401961,-0.033747207,0.06228605,0.03319184,-1.5294534,0.020032808,-0.32580173,0.15688685,0.05351954,0.045372285,3.0982454,-0.023052674,131.77486,0.1,0.30140585,0.4538635,0.15752438,0.10931909,inf,inf,inf,inf,1,1,1,1,2,0,2,1,3,1,1,1
27084236,15154129,-33.9385715,18.8741563,-2.3903527,0.7397,-0.7793915,-0.23954648,0.1367903,0.0,-0.05511828,-0.03505359,0.06210927,0.032702256,-1.5294534,0.020032808,-0.32580173,-0.029362092,-0.25870648,0.12041223,3.0982366,-0.023052674,131.77486,0.1,0.30235642,0.45455664,0.15815702,0.10949634,inf,inf,inf,inf,1,1,1,1,2,0,2,1,3,1,1,1
27094240,15154129,-33.9385715,18.8741563,-2.3914378,0.7393385,-0.7795305,-0.23954648,0.1367903,0.0,-0.05679845,-0.038137626,0.062031873,0.032207273,-1.5294534,0.020032808,-0.32580173,-0.31623363,-0.7418309,0.21291254,3.0982916,-0.023052674,131.77486,0.1,0.30331424,0.451449,0.15878569,0.10930359,inf,inf,inf,inf,1,1,1,1,2,0,2,1,3,1,1,1
27104245,15154129,-33.9385715,18.8741563,-2.3925054,0.738953,-0.7796506,-0.23954648,0.1367903,0.0,-0.05754578,-0.040978666,0.061302185,0.03109008,-1.5294534,0.020032808,-0.32580173,-0.4203442,-1.0825194,0.250546,3.0984926,-0.023052674,131.77486,0.1,0.30427948,0.45214072,0.1594159,0.10948024,inf,inf,inf,inf,1,1,1,1,2,0,2,1,3,1,1,1
27114251,15154129,-33.9385715,18.8741563,-2.3935556,0.73854333,-0.77975756,-0.23954648,0.1367903,0.0,-0.058404945,-0.044041563,0.06001726,0.029446354,-1.5294534,0.020032808,-0.32580173,-0.48339579,-1.449084,0.23814434,3.0988367,-0.023052674,131.77486,0.1,0.30525196,0.45283458,0.1600411,0.109655745,inf,inf,inf,inf,1,1,1,1,2,0,2,1,3,1,1,1
27124304,15154129,-33.9385715,18.8741563,-2.394589,0.7381061,-0.7798524,-0.23954648,0.1367903,0.0,-0.057839368,-0.046628755,0.05890515,0.028003253,-1.5294534,0.020032808,-0.32580173,-0.24708065,-1.6050607,0.3357201,3.099276,-0.023052674,131.77486,0.1,0.3062319,0.4535306,0.16066502,0.10983171,inf,inf,inf,inf,1,1,1,1,2,0,2,1,3,1,1,1
27134268,15154129,-33.9385715,18.8741563,-2.3955927,0.73765177,-0.7799476,-0.23954648,0.1367903,0.0,-0.057639737,-0.048258,0.056544874,0.025338134,-1.5294534,0.020032808,-0.32580173,-0.17007431,-1.6386697,0.21744372,3.099636,-0.023052674,131.77486,0.1,0.3072191,0.45422885,0.16128892,0.11000713,inf,inf,inf,inf,1,1,1,1,2,0,2,1,3,1,1,1
27144266,15154129,-33.9385715,18.8741563,-2.39657,0.73717344,-0.78003716,-0.23954648,0.1367903,0.0,-0.056689378,-0.050121583,0.055014525,0.023528656,-1.5294534,0.020032808,-0.32580173,-0.120644785,-1.5318779,0.24870338,3.099936,-0.023052674,131.77486,0.1,0.30821377,0.4549293,0.16191323,0.110183164,inf,inf,inf,inf,1,1,1,1,2,0,2,1,3,1,1,1
27154266,15154129,-33.9385715,18.8741563,-2.3975132,0.73667437,-0.7801234,-0.23954648,0.1367903,0.0,-0.055325296,-0.051347237,0.052562926,0.020822614,-1.5294534,0.020032808,-0.32580173,-0.116134204,-1.3295479,0.06568321,3.1003249,-0.023052674,131.77486,0.1,0.30921587,0.4556319,0.16254395,0.1103596,inf,inf,inf,inf,1,1,1,1,2,0,2,1,3,1,1,1
27164271,15154129,-33.9385715,18.8741563,-2.3984177,0.7361594,-0.78021395,-0.23954648,0.1367903,0.0,-0.05321033,-0.0523447,0.049916804,0.017945405,-1.5294534,0.020032808,-0.32580173,-0.04850593,-1.1795274,-0.001546724,3.1008985,-0.023052674,131.77486,0.1,0.31022534,0.4563367,0.16317512,0.11053545,inf,inf,inf,inf,1,1,1,1,2,0,2,1,3,1,1,1
27174275,15154129,-33.9385715,18.8741563,-2.3992782,0.735638,-0.78031135,-0.23954648,0.1367903,0.0,-0.050944414,-0.05208646,0.04697845,0.014798769,-1.5294534,0.020032808,-0.32580173,-0.106571496,-0.9939124,-0.10128959,3.1015449,-0.023052674,131.77486,0.1,0.31124237,0.45704374,0.16381106,0.11071225,inf,inf,inf,inf,1,1,1,1,2,0,2,1,3,1,1,1
27184279,15154129,-33.9385715,18.8741563,-2.4000938,0.7351214,-0.7804382,-0.23954648,0.1367903,0.0,-0.04811145,-0.050670657,0.044133473,0.011745394,-1.5294534,0.020032808,-0.32580173,-0.06241538,-0.7752395,-0.1982189,3.1021187,-0.023052674,131.77486,0.1,0.31226683,0.4538875,0.16444649,0.11050478,inf,inf,inf,inf,1,1,1,1,2,0,2,1,3,1,1,1
27194284,15154129,-33.9385715,18.8741563,-2.4008641,0.7346148,-0.7805733,-0.23954648,0.1367903,0.0,-0.045408968,-0.04908002,0.041623034,0.009048549,-1.5294534,0.020032808,-0.32580173,-0.046033647,-0.60148424,-0.1444421,3.1025655,-0.023052674,131.77486,0.1,0.31329894,0.4545929,0.16508704,0.11068184,inf,inf,inf,inf,1,1,1,1,2,0,2,1,3,1,1,1
27204289,15154129,-33.9385715,18.8741563,-2.4021206,0.73421514,-0.7808631,-0.23954648,0.1367903,0.0,-0.043065164,-0.04642449,0.039373703,0.0064782104,-1.5294534,0.020032808,-0.32580173,-0.047014702,-0.19624062,-0.1644297,3.102851,-0.023052674,131.77486,0.1,0.29452577,0.44993976,0.15229183,0.10763961,inf,inf,inf,inf,1,1,1,1,2,0,2,1,3,1,1,1
27214292,15154129,-33.9385715,18.8741563,-2.4033241,0.7338272,-0.78115237,-0.23954648,0.1367903,0.0,-0.04178482,-0.044283632,0.037040316,0.003850872,-1.5294534,0.020032808,-0.32580173,-0.11071453,0.07843159,-0.20497684,3.1029055,-0.023052674,131.77486,0.1,0.2954247,0.450617,0.1528978,0.10781456,inf,inf,inf,inf,1,1,1,1,2,0,2,1,3,1,1,1
27224296,15154129,-33.9385715,18.8741563,-2.4044752,0.7334536,-0.7814388,-0.23954648,0.1367903,0.0,-0.040562477,-0.042099003,0.035288196,0.0018304567,-1.5294534,0.020032808,-0.32580173,-0.32880467,0.19116667,-0.19881783,3.1028452,-0.023052674,131.77486,0.1,0.2963306,0.45129633,0.15350947,0.10798917,inf,inf,inf,inf,1,1,1,1,2,0,2,1,3,1,1,1
27234303,15154129,-33.9385715,18.8741563,-2.4055767,0.73309857,-0.7817222,-0.23954648,0.1367903,0.0,-0.0389222,-0.039480958,0.033340015,-0.00036102874,-1.5294534,0.020032808,-0.32580173,-0.3600552,0.271431,-0.2120917,3.1025956,-0.023052674,131.77486,0.1,0.29724362,0.45197785,0.15412356,0.10816442,inf,inf,inf,inf,1,1,1,1,2,0,2,1,3,1,1,1
27244305,15154129,-33.9385715,18.8741563,-2.4066267,0.73276657,-0.7820061,-0.23954648,0.1367903,0.0,-0.03703275,-0.036399245,0.03215492,-0.0017654276,-1.5294534,0.020032808,-0.32580173,-0.41383916,0.36757487,0.085761875,3.1022334,-0.023052674,131.77486,0.1,0.2981637,0.45266148,0.15473782,0.10833966,inf,inf,inf,inf,1,1,1,1,2,0,2,1,3,1,1,1
27254310,15154129,-33.9385715,18.8741563,-2.4076304,0.7324616,-0.7822841,-0.23954648,0.1367903,0.0,-0.035276227,-0.034229152,0.03143771,-0.0026791212,-1.5294534,0.020032808,-0.32580173,-0.32960173,0.055721525,0.32350513,3.1016862,-0.023052674,131.77486,0.1,0.29909083,0.45334724,0.1553543,0.10851438,inf,inf,inf,inf,1,1,1,1,2,0,2,1,3,1,1,1
27264314,15154129,-33.9385715,18.8741563,-2.4085853,0.7321834,-0.7825535,-0.23954648,0.1367903,0.0,-0.033307984,-0.03152631,0.030511027,-0.0037801561,-1.5294534,0.020032808,-0.32580173,-0.33531788,-0.17895886,0.4167899,3.1010878,-0.023052674,131.77486,0.1,0.30002517,0.4540352,0.15597072,0.10869,inf,inf,inf,inf,1,1,1,1,2,0,2,1,3,1,1,1
27274318,15154129,-33.9385715,18.8741563,-2.4094949,0.73192954,-0.7829154,-0.23954648,0.1367903,0.0,-0.030887553,-0.029326735,0.02930595,-0.005236118,-1.5294534,0.020032808,-0.32580173,-0.08981066,-0.42426494,0.5687272,3.1005871,-0.023052674,131.77486,0.1,0.3009666,0.45093536,0.15659104,0.108500004,inf,inf,inf,inf,1,1,1,1,2,0,2,1,3,1,1,1
27284329,15154129,-33.9385715,18.8741563,-2.4103596,0.73169035,-0.7832668,-0.23954648,0.1367903,0.0,-0.029349085,-0.02704467,0.028235452,-0.0065328125,-1.5294534,0.020032808,-0.32580173,-0.11342848,-0.31553194,0.58908945,3.1002305,-0.023052674,131.77486,0.1,0.3019153,0.45162183,0.15721706,0.108676106,inf,inf,inf,inf,1,1,1,1,2,0,2,1,3,1,1,1
27294326,15154129,-33.9385715,18.8741563,-2.4111881,0.7314644,-0.78360486,-0.23954648,0.1367903,0.0,-0.028709514,-0.025418056,0.027354762,-0.0076157255,-1.5294534,0.020032808,-0.32580173,-0.16873108,-0.31643564,0.52637017,3.1000414,-0.023052674,131.77486,0.1,0.30287117,0.45231044,0.15784523,0.10885149,inf,inf,inf,inf,1,1,1,1,2,0,2,1,3,1,1,1
27304331,15154129,-33.9385715,18.8741563,-2.411983,0.7312495,-0.78392667,-0.23954648,0.1367903,0.0,-0.027739514,-0.023057507,0.027170844,-0.007979167,-1.5294534,0.020032808,-0.32580173,-0.15367168,-0.09907553,0.5645279,3.0999537,-0.023052674,131.77486,0.1,0.30383438,0.45300123,0.15847944,0.109027706,inf,inf,inf,inf,1,1,1,1,2,0,2,1,3,1,1,1
27314336,15154129,-33.9385715,18.8741563,-2.4127424,0.7310476,-0.7842269,-0.23954648,0.1367903,0.0,-0.02671045,-0.020960089,0.027454553,-0.00785285,-1.5294534,0.020032808,-0.32580173,-0.2120014,0.06302578,0.5730303,3.0998762,-0.023052674,131.77486,0.1,0.30480486,0.45369416,0.15911056,0.10920294,inf,inf,inf,inf,1,1,1,1,2,0,2,1,3,1,1,1
27324339,15154129,-33.9385715,18.8741563,-2.4134665,0.7308638,-0.7845048,-0.23954648,0.1367903,0.0,-0.02638852,-0.019791825,0.027566174,-0.007877697,-1.5294534,0.020032808,-0.32580173,-0.4780288,-0.27849412,0.49990734,3.0997863,-0.023052674,131.77486,0.1,0.30578274,0.45438927,0.15975055,0.10937925,inf,inf,inf,inf,1,1,1,1,2,0,2,1,3,1,1,1
27334344,15154129,-33.9385715,18.8741563,-2.4141643,0.7306954,-0.78476256,-0.23954648,0.1367903,0.0,-0.025897484,-0.018654115,0.028607197,-0.0069530657,-1.5294534,0.020032808,-0.32580173,-0.44175327,-0.59920996,0.75881356,3.0996642,-0.023052674,131.77486,0.1,0.30676794,0.45508656,0.16039361,0.1095556,inf,inf,inf,inf,1,1,1,1,2,0,2,1,3,1,1,1
27344348,15154129,-33.9385715,18.8741563,-2.4148428,0.7305457,-0.784991,-0.23954648,0.1367903,0.0,-0.02630216,-0.01807433,0.030483639,-0.005174117,-1.5294534,0.020032808,-0.32580173,-0.40898764,-1.2177596,0.9487341,3.0996158,-0.023052674,131.77486,0.1,0.3077605,0.455786,0.16103975,0.10973117,inf,inf,inf,inf,1,1,1,1,2,0,2,1,3,1,1,1
27354369,15154129,-33.9385715,18.8741563,-2.415507,0.73040617,-0.78553164,-0.23954648,0.1367903,0.0,-0.025693545,-0.017386926,0.03151783,-0.004567548,-1.5294534,0.020032808,-0.32580173,-0.028916553,-1.5203451,0.8589924,3.0997488,-0.023052674,131.77486,0.1,0.3087606,0.45265386,0.1616896,0.10953059,inf,inf,inf,inf,1,1,1,1,2,0,2,1,3,1,1,1
27364356,15154129,-33.9385715,18.8741563,-2.4161592,0.730268,-0.78603286,-0.23954648,0.1367903,0.0,-0.026838308,-0.015971458,0.032256905,-0.0042238613,-1.5294534,0.020032808,-0.32580173,0.08839336,-1.1968311,0.66926134,3.1001596,-0.023052674,131.77486,0.1,0.3097681,0.4533517,0.16233775,0.109705746,inf,inf,inf,inf,1,1,1,1,2,0,2,1,3,1,1,1
27374362,15154129,-33.9385715,18.8741563,-2.4168103,0.73012686,-0.7864884,-0.23954648,0.1367903,0.0,-0.029220097,-0.014976927,0.033196505,-0.0036478173,-1.5294534,0.020032808,-0.32580173,-0.024131449,-0.76462346,0.32084167,3.100677,-0.023052674,131.77486,0.1,0.3107832,0.45405176,0.16298825,0.10988139,inf,inf,inf,inf,1,1,1,1,2,0,2,1,3,1,1,1
27384365,15154129,-33.9385715,18.8741563,-2.4174597,0.72997814,-0.78689486,-0.23954648,0.1367903,0.0,-0.03128676,-0.01307215,0.035345174,-0.0018324115,-1.5294534,0.020032808,-0.32580173,-0.17031336,0.10810689,0.1405576,3.1013181,-0.023052674,131.77486,0.1,0.3118057,0.45475397,0.16363828,0.11005639,inf,inf,inf,inf,1,1,1,1,2,0,2,1,3,1,1,1
27394370,15154129,-33.9385715,18.8741563,-2.4181044,0.72983366,-0.78724736,-0.23954648,0.1367903,0.0,-0.032965403,-0.011403717,0.03767235,0.0001909039,-1.5294534,0.020032808,-0.32580173,-0.3623277,0.5390057,-0.083690755,3.1020474,-0.023052674,131.77486,0.1,0.3128358,0.4554584,0.16428806,0.11023186,inf,inf,inf,inf,1,1,1,1,2,0,2,1,3,1,1,1
27404374,15154129,-33.9385715,18.8741563,-2.4192274,0.7294065,-0.7874256,-0.23954648,0.1367903,0.0,-0.03513518,-0.01104412,0.040451728,0.0028257186,-1.5294534,0.020032808,-0.32580173,-0.6166485,0.56136775,0.06469113,3.1027713,-0.023052674,131.77486,0.1,0.29408455,0.4508077,0.15164621,0.10722626,inf,inf,inf,inf,1,1,1,1,2,0,2,1,3,1,1,1
27414378,15154129,-33.9385715,18.8741563,-2.4203315,0.72900033,-0.7875622,-0.23954648,0.1367903,0.0,-0.036849655,-0.011457182,0.042853672,0.005104484,-1.5294534,0.020032808,-0.32580173,-0.7872391,-0.13021472,0.19803396,3.1034198,-0.023052674,131.77486,0.1,0.2949828,0.45148417,0.15226243,0.107399546,inf,inf,inf,inf,1,1,1,1,2,0,2,1,3,1,1,1
27424382,15154129,-33.9385715,18.8741563,-2.4214175,0.7286081,-0.7876577,-0.23954648,0.1367903,0.0,-0.037620626,-0.012800454,0.04500903,0.0071571595,-1.5294534,0.020032808,-0.32580173,-0.63902694,-0.9079367,0.2192795,3.1041195,-0.023052674,131.77486,0.1,0.29588798,0.45216277,0.15287654,0.10757272,inf,inf,inf,inf,1,1,1,1,2,0,2,1,3,1,1,1
27434386,15154129,-33.9385715,18.8741563,-2.4224825,0.7282249,-0.78771436,-0.23954648,0.1367903,0.0,-0.038776968,-0.013588217,0.04617282,0.0082376655,-1.5294534,0.020032808,-0.32580173,-0.66640985,-1.4446152,-0.017322985,3.104812,-0.023052674,131.77486,0.1,0.29680017,0.45284346,0.15349235,0.10774524,inf,inf,inf,inf,1,1,1,1,2,0,2,1,3,1,1,1
27444392,15154129,-33.9385715,18.8741563,-2.4235327,0.72784543,-0.7878667,-0.23954648,0.1367903,0.0,-0.03968888,-0.012603968,0.047671385,0.009540308,-1.5294534,0.020032808,-0.32580173,-0.4620856,-1.1895303,-0.07806149,3.1054718,-0.023052674,131.77486,0.1,0.29771942,0.44976604,0.15411173,0.10755988,inf,inf,inf,inf,1,1,1,1,2,0,2,1,3,1,1,1
27454395,15154129,-33.9385715,18.8741563,-2.4245605,0.7274676,-0.78797597,-0.23954648,0.1367903,0.0,-0.0407318,-0.011136768,0.049622722,0.011319475,-1.5294534,0.020032808,-0.32580173,-0.600524,-0.53533393,-0.18065995,3.1059403,-0.023052674,131.77486,0.1,0.29864573,0.4504453,0.15473068,0.10773246,inf,inf,inf,inf,1,1,1,1,2,0,2,1,3,1,1,1
27464401,15154129,-33.9385715,18.8741563,-2.4255714,0.7270896,-0.7880465,-0.23954648,0.1367903,0.0,-0.04232299,-0.01150996,0.05138155,0.012928986,-1.5294534,0.020032808,-0.32580173,-0.74973375,-0.3137848,-0.13776739,3.1063683,-0.023052674,131.77486,0.1,0.29957917,0.45112666,0.15534979,0.10790563,inf,inf,inf,inf,1,1,1,1,2,0,2,1,3,1,1,1
27474404,15154129,-33.9385715,18.8741563,-2.4265656,0.72671247,-0.7880824,-0.23954648,0.1367903,0.0,-0.042798672,-0.014332464,0.053409476,0.014829554,-1.5294534,0.020032808,-0.32580173,-0.64701915,-1.0566957,0.09111074,3.1069162,-0.023052674,131.77486,0.1,0.30051968,0.45181018,0.15596628,0.10807773,inf,inf,inf,inf,1,1,1,1,2,0,2,1,3,1,1,1
27484447,15154129,-33.9385715,18.8741563,-2.4275432,0.7263401,-0.7880784,-0.23954648,0.1367903,0.0,-0.042960685,-0.01591471,0.05467954,0.01599328,-1.5294534,0.020032808,-0.32580173,-0.4541297,-1.8436656,-0.031096235,3.1076226,-0.023052674,131.77486,0.1,0.3014674,0.4524958,0.15658273,0.10825032,inf,inf,inf,inf,1,1,1,1,2,0,2,1,3,1,1,1
27494429,15154129,-33.9385715,18.8741563,-2.4284976,0.72597355,-0.7880435,-0.23954648,0.1367903,0.0,-0.042903207,-0.0142806275,0.055039648,0.01626712,-1.5294534,0.020032808,-0.32580173,-0.27846608,-1.5534296,-0.39676288,3.1083295,-0.023052674,131.77486,0.1,0.30242217,0.45318356,0.15719843,0.108422376,inf,inf,inf,inf,1,1,1,1,2,0,2,1,3,1,1,1
27504413,15154129,-33.9385715,18.8741563,-2.4294255,0.7256068,-0.7879752,-0.23954648,0.1367903,0.0,-0.043228623,-0.011225523,0.05617795,0.017338462,-1.5294534,0.020032808,-0.32580173,-0.48343444,-0.32366067,-0.5955373,3.1088784,-0.023052674,131.77486,0.1,0.30338418,0.45387346,0.157812,0.1085947,inf,inf,inf,inf,1,1,1,1,2,0,2,1,3,1,1,1
27514421,15154129,-33.9385715,18.8741563,-2.4303303,0.7252395,-0.78787786,-0.23954648,0.1367903,0.0,-0.043475393,-0.011092334,0.057981353,0.019093383,-1.5294534,0.020032808,-0.32580173,-0.64415705,0.14917178,-0.31120646,3.1093159,-0.023052674,131.77486,0.1,0.30435342,0.45456547,0.15842135,0.1087667,inf,inf,inf,inf,1,1,1,1,2,0,2,1,3,1,1,1
27524425,15154129,-33.9385715,18.8741563,-2.4312172,0.7248756,-0.78775996,-0.23954648,0.1367903,0.0,-0.042977486,-0.013523186,0.058816716,0.019897716,-1.5294534,0.020032808,-0.32580173,-0.3138659,-0.60462314,-0.012953843,3.1099594,-0.023052674,131.77486,0.1,0.30532974,0.45525956,0.15903577,0.108938396,inf,inf,inf,inf,1,1,1,1,2,0,2,1,3,1,1,1
27534430,15154129,-33.9385715,18.8741563,-2.4320843,0.7245173,-0.7879451,-0.23954648,0.1367903,0.0,-0.04295525,-0.013389923,0.057018645,0.017763508,-1.5294534,0.020032808,-0.32580173,-0.17495604,-0.9211013,-0.39600605,3.1108556,-0.023052674,131.77486,0.1,0.3063134,0.45213538,0.15965377,0.10873785,inf,inf,inf,inf,1,1,1,1,2,0,2,1,3,1,1,1
27544434,15154129,-33.9385715,18.8741563,-2.4329278,0.72415894,-0.7881064,-0.23954648,0.1367903,0.0,-0.043346986,-0.0100401845,0.056586865,0.01702559,-1.5294534,0.020032808,-0.32580173,-0.35414743,0.2131732,-0.5905444,3.1115532,-0.023052674,131.77486,0.1,0.30730423,0.4528279,0.16027063,0.10890941,inf,inf,inf,inf,1,1,1,1,2,0,2,1,3,1,1,1
27554438,15154129,-33.9385715,18.8741563,-2.433749,0.72381324,-0.7882484,-0.23954648,0.1367903,0.0,-0.04245666,-0.007179511,0.057407554,0.017569374,-1.5294534,0.020032808,-0.32580173,-0.22325501,1.044679,-0.11980607,3.1121254,-0.023052674,131.77486,0.1,0.3083024,0.4535226,0.16088484,0.10908101,inf,inf,inf,inf,1,1,1,1,2,0,2,1,3,1,1,1
27564442,15154129,-33.9385715,18.8741563,-2.4345481,0.7234901,-0.7883759,-0.23954648,0.1367903,0.0,-0.041088495,-0.007894618,0.056714386,0.016627455,-1.5294534,0.020032808,-0.32580173,0.17114468,0.37561038,0.16528775,3.11282,-0.023052674,131.77486,0.1,0.30930778,0.4542194,0.16149731,0.109251834,inf,inf,inf,inf,1,1,1,1,2,0,2,1,3,1,1,1
27574467,15154129,-33.9385715,18.8741563,-2.435322,0.72318435,-0.78848726,-0.23954648,0.1367903,0.0,-0.04054515,-0.0072653764,0.05419126,0.013882526,-1.5294534,0.020032808,-0.32580173,0.16326453,-0.048361745,-0.29864335,3.113546,-0.023052674,131.77486,0.1,0.3103206,0.45491838,0.16210905,0.10942328,inf,inf,inf,inf,1,1,1,1,2,0,2,1,3,1,1,1
27584453,15154129,-33.9385715,18.8741563,-2.4360747,0.72288483,-0.7885851,-0.23954648,0.1367903,0.0,-0.04017066,-0.004848445,0.05428728,0.013782702,-1.5294534,0.020032808,-0.32580173,0.23532483,0.63581187,-0.2077069,3.1139379,-0.023052674,131.77486,0.1,0.31134054,0.45561948,0.16272123,0.109594285,inf,inf,inf,inf,1,1,1,1,2,0,2,1,3,1,1,1
27594456,15154129,-33.9385715,18.8741563,-2.4368105,0.72258747,-0.78866965,-0.23954648,0.1367903,0.0,-0.04009791,-0.004291327,0.053868514,0.013192887,-1.5294534,0.020032808,-0.32580173,0.2702122,1.0525721,0.08498435,3.1143622,-0.023052674,131.77486,0.1,0.31236795,0.45632273,0.16333658,0.10976616,inf,inf,inf,inf,1,1,1,1,2,0,2,1,3,1,1,1
27604460,15154129,-33.9385715,18.8741563,-2.4382467,0.72246677,-0.78869355,-0.23954648,0.1367903,0.0,-0.040808145,-0.0050403313,0.050976638,0.0102100335,-1.5294534,0.020032808,-0.32580173,0.37767377,0.5246718,-0.19859499,3.1151004,-0.023052674,131.77486,0.1,0.2936519,0.4516764,0.15084235,0.106797285,inf,inf,inf,inf,1,1,1,1,2,0,2,1,3,1,1,1
27614464,15154129,-33.9385715,18.8741563,-2.4396489,0.7223538,-0.7889752,-0.23954648,0.1367903,0.0,-0.04100462,-0.0041786633,0.050908398,0.009805649,-1.5294534,0.020032808,-0.32580173,0.44457895,0.29025418,0.06830842,3.1157207,-0.023052674,131.77486,0.1,0.29454863,0.44862068,0.15143357,0.10661438,inf,inf,inf,inf,1,1,1,1,2,0,2,1,3,1,1,1
27624468,15154129,-33.9385715,18.8741563,-2.4410212,0.7222538,-0.7892504,-0.23954648,0.1367903,0.0,-0.040890537,-0.0007965116,0.048859976,0.0074522723,-1.5294534,0.020032808,-0.32580173,0.76157576,0.79996085,0.28617683,3.1160936,-0.023052674,131.77486,0.1,0.29545224,0.44929284,0.15202561,0.10678434,inf,inf,inf,inf,1,1,1,1,2,0,2,1,3,1,1,1
27634473,15154129,-33.9385715,18.8741563,-2.4423597,0.7221705,-0.7895173,-0.23954648,0.1367903,0.0,-0.04300239,0.0012369838,0.04487965,0.003196386,-1.5294534,0.020032808,-0.32580173,0.23669478,1.0153937,-0.39894888,3.1165848,-0.023052674,131.77486,0.1,0.2963627,0.44996703,0.15261608,0.10695395,inf,inf,inf,inf,1,1,1,1,2,0,2,1,3,1,1,1
27644482,15154129,-33.9385715,18.8741563,-2.4436588,0.7221109,-0.78976953,-0.23954648,0.1367903,0.0,-0.042213608,0.0012584898,0.044845667,0.0029156285,-1.5294534,0.020032808,-0.32580173,0.069566146,0.20531431,-0.35358065,3.1170862,-0.023052674,131.77486,0.1,0.2972801,0.45064333,0.15320453,0.10712428,inf,inf,inf,inf,1,1,1,1,2,0,2,1,3,1,1,1
27654482,15154129,-33.9385715,18.8741563,-2.4449263,0.72207814,-0.79002047,-0.23954648,0.1367903,0.0,-0.040801074,0.0027562832,0.0444961,0.0023468824,-1.5294534,0.020032808,-0.32580173,0.6586032,-0.5157039,0.45927233,3.1174202,-0.023052674,131.77486,0.1,0.2982044,0.45132172,0.15380041,0.10729433,inf,inf,inf,inf,1,1,1,1,2,0,2,1,3,1,1,1
27664486,15154129,-33.9385715,18.8741563,-2.4461546,0.7220684,-0.7902664,-0.23954648,0.1367903,0.0,-0.04256057,0.007734123,0.04008117,-0.0022607609,-1.5294534,0.020032808,-0.32580173,0.007844523,0.11092676,-0.1442686,3.1176932,-0.023052674,131.77486,0.1,0.29913566,0.45200223,0.15440492,0.10746483,inf,inf,inf,inf,1,1,1,1,2,0,2,1,3,1,1,1
27674500,15154129,-33.9385715,18.8741563,-2.4473362,0.72209394,-0.79049474,-0.23954648,0.1367903,0.0,-0.0426301,0.010924516,0.038040396,-0.004468888,-1.5294534,0.020032808,-0.32580173,-0.8279343,0.117930576,-0.9763007,3.117987,-0.023052674,131.77486,0.1,0.3000739,0.4526848,0.1550069,0.1076342,inf,inf,inf,inf,1,1,1,1,2,0,2,1,3,1,1,1
27684494,15154129,-33.9385715,18.8741563,-2.4484782,0.7221613,-0.7907168,-0.23954648,0.1367903,0.0,-0.038983278,0.012339792,0.040248312,-0.0024039384,-1.5294534,0.020032808,-0.32580173,-0.10286948,-0.83253795,0.08029683,3.1180005,-0.023052674,131.77486,0.1,0.30101922,0.4533695,0.15560551,0.10780431,inf,inf,inf,inf,1,1,1,1,2,0,2,1,3,1,1,1
27694499,15154129,-33.9385715,18.8741563,-2.4495914,0.7222692,-0.79093266,-0.23954648,0.1367903,0.0,-0.03929911,0.018091492,0.037674468,-0.0050973794,-1.5294534,0.020032808,-0.32580173,0.17858203,-0.60892147,0.16430502,3.1177866,-0.023052674,131.77486,0.1,0.30197155,0.45405626,0.15620698,0.107975066,inf,inf,inf,inf,1,1,1,1,2,0,2,1,3,1,1,1
27704504,15154129,-33.9385715,18.8741563,-2.4506679,0.7224041,-0.79146236,-0.23954648,0.1367903,0.0,-0.04136941,0.023180624,0.033997007,-0.009204676,-1.5294534,0.020032808,-0.32580173,-0.8095384,0.36596826,-0.9606037,3.1177094,-0.023052674,131.77486,0.1,0.3029309,0.45095474,0.15682553,0.10777976,inf,inf,inf,inf,1,1,1,1,2,0,2,1,3,1,1,1
27714507,15154129,-33.9385715,18.8741563,-2.4517126,0.7225669,-0.79197127,-0.23954648,0.1367903,0.0,-0.03828867,0.02453953,0.03601617,-0.007579205,-1.5294534,0.020032808,-0.32580173,-0.27100843,0.15747146,-0.309247,3.117797,-0.023052674,131.77486,0.1,0.30389744,0.45163998,0.1574438,0.1079504,inf,inf,inf,inf,1,1,1,1,2,0,2,1,3,1,1,1
27724512,15154129,-33.9385715,18.8741563,-2.4527285,0.72275436,-0.79246384,-0.23954648,0.1367903,0.0,-0.034909587,0.026999999,0.0371551,-0.006799692,-1.5294534,0.020032808,-0.32580173,0.96739745,0.07107054,0.78724974,3.1179008,-0.023052674,131.77486,0.1,0.30487105,0.4523273,0.15805413,0.10811988,inf,inf,inf,inf,1,1,1,1,2,0,2,1,3,1,1,1
27734516,15154129,-33.9385715,18.8741563,-2.453714,0.7229524,-0.7929265,-0.23954648,0.1367903,0.0,-0.037998043,0.031494144,0.032661367,-0.0116194775,-1.5294534,0.020032808,-0.32580173,0.19024986,1.258208,-0.4484166,3.1179512,-0.023052674,131.77486,0.1,0.3058519,0.45301676,0.15867086,0.10829101,inf,inf,inf,inf,1,1,1,1,2,0,2,1,3,1,1,1
27744520,15154129,-33.9385715,18.8741563,-2.4546793,0.7231658,-0.79337305,-0.23954648,0.1367903,0.0,-0.03949819,0.031421762,0.032740656,-0.011834492,-1.5294534,0.020032808,-0.32580173,-0.37482652,1.0663766,-0.3865497,3.1180315,-0.023052674,131.77486,0.1,0.30683988,0.45370832,0.15930018,0.10846225,inf,inf,inf,inf,1,1,1,1,2,0,2,1,3,1,1,1
27754526,15154129,-33.9385715,18.8741563,-2.4556382,0.7234037,-0.7938137,-0.23954648,0.1367903,0.0,-0.037532844,0.0297358,0.03392234,-0.010916367,-1.5294534,0.020032808,-0.32580173,0.7800909,-0.4028648,0.8378804,3.1179214,-0.023052674,131.77486,0.1,0.30783522,0.454402,0.15991843,0.10863264,inf,inf,inf,inf,1,1,1,1,2,0,2,1,3,1,1,1
27764539,15154129,-33.9385715,18.8741563,-2.456574,0.72365427,-0.7942374,-0.23954648,0.1367903,0.0,-0.040557668,0.032397218,0.028658684,-0.016414063,-1.5294534,0.020032808,-0.32580173,0.051639453,-0.22482815,-0.22070679,3.1176796,-0.023052674,131.77486,0.1,0.30883768,0.45509776,0.1605374,0.108802855,inf,inf,inf,inf,1,1,1,1,2,0,2,1,3,1,1,1
27774533,15154129,-33.9385715,18.8741563,-2.4574718,0.7239075,-0.7946398,-0.23954648,0.1367903,0.0,-0.042424724,0.033891387,0.026835078,-0.018443381,-1.5294534,0.020032808,-0.32580173,-1.3949947,0.38948503,-1.1312506,3.1174614,-0.023052674,131.77486,0.1,0.3098475,0.45579565,0.16117136,0.10897492,inf,inf,inf,inf,1,1,1,1,2,0,2,1,3,1,1,1
27784538,15154129,-33.9385715,18.8741563,-2.4583623,0.7241839,-0.79504323,-0.23954648,0.1367903,0.0,-0.038820893,0.0330739,0.028935201,-0.016521798,-1.5294534,0.020032808,-0.32580173,0.06727126,-0.60523784,0.36229864,3.1174307,-0.023052674,131.77486,0.1,0.3108647,0.4564957,0.1617929,0.10914555,inf,inf,inf,inf,1,1,1,1,2,0,2,1,3,1,1,1
27794588,15154129,-33.9385715,18.8741563,-2.4592419,0.7244775,-0.7958345,-0.23954648,0.1367903,0.0,-0.039252218,0.03771185,0.026164051,-0.019853434,-1.5294534,0.020032808,-0.32580173,0.6706742,0.10576789,0.15621956,3.11744,-0.023052674,131.77486,0.1,0.31188905,0.45334628,0.16242835,0.108935714,inf,inf,inf,inf,1,1,1,1,2,0,2,1,3,1,1,1
27804545,15154129,-33.9385715,18.8741563,-2.460344,0.7247843,-0.79643476,-0.23954648,0.1367903,0.0,-0.0403521,0.041207213,0.025808217,-0.020576267,-1.5294534,0.020032808,-0.32580173,-0.33373916,1.4310585,-0.66472083,3.11726,-0.023052674,131.77486,0.1,0.29320747,0.44883004,0.15011606,0.106035486,inf,inf,inf,inf,1,1,1,1,2,0,2,1,3,1,1,1
27814550,15154129,-33.9385715,18.8741563,-2.461425,0.7251183,-0.79702586,-0.23954648,0.1367903,0.0,-0.038495865,0.039518245,0.026707625,-0.020009626,-1.5294534,0.020032808,-0.32580173,0.3843812,0.2370105,0.47196916,3.1171052,-0.023052674,131.77486,0.1,0.2941028,0.4494993,0.15070704,0.10620394,inf,inf,inf,inf,1,1,1,1,2,0,2,1,3,1,1,1
27824554,15154129,-33.9385715,18.8741563,-2.462485,0.72547734,-0.79759973,-0.23954648,0.1367903,0.0,-0.039774362,0.040914558,0.023766957,-0.023249695,-1.5294534,0.020032808,-0.32580173,0.5135291,-0.5606894,0.2122729,3.116816,-0.023052674,131.77486,0.1,0.29500496,0.45017067,0.15130393,0.10637294,inf,inf,inf,inf,1,1,1,1,2,0,2,1,3,1,1,1
27834559,15154129,-33.9385715,18.8741563,-2.4635005,0.72584045,-0.7981417,-0.23954648,0.1367903,0.0,-0.042976867,0.04451212,0.021104285,-0.026180048,-1.5294534,0.020032808,-0.32580173,-1.2355549,0.46352676,-0.9933475,3.1161659,-0.023052674,131.77486,0.1,0.29591393,0.45084405,0.15192683,0.106542796,inf,inf,inf,inf,1,1,1,1,2,0,2,1,3,1,1,1
27844563,15154129,-33.9385715,18.8741563,-2.464504,0.72622204,-0.798681,-0.23954648,0.1367903,0.0,-0.04014756,0.043805405,0.02236134,-0.025159918,-1.5294534,0.020032808,-0.32580173,-0.1576646,-0.14809196,0.0973928,3.115852,-0.023052674,131.77486,0.1,0.29682994,0.45151952,0.15253825,0.1067124,inf,inf,inf,inf,1,1,1,1,2,0,2,1,3,1,1,1
27854569,15154129,-33.9385715,18.8741563,-2.4654942,0.72661155,-0.7992059,-0.23954648,0.1367903,0.0,-0.03924788,0.04531483,0.020339409,-0.027389582,-1.5294534,0.020032808,-0.32580173,0.8856009,-0.13321114,0.10896327,3.1157658,-0.023052674,131.77486,0.1,0.29775283,0.45219702,0.15312323,0.106879674,inf,inf,inf,inf,1,1,1,1,2,0,2,1,3,1,1,1
27864572,15154129,-33.9385715,18.8741563,-2.466457,0.7269971,-0.799713,-0.23954648,0.1367903,0.0,-0.04373271,0.048001766,0.017905159,-0.030003278,-1.5294534,0.020032808,-0.32580173,-0.4414575,0.9215011,-0.4753265,3.1152077,-0.023052674,131.77486,0.1,0.29868266,0.45287663,0.15374315,0.10704924,inf,inf,inf,inf,1,1,1,1,2,0,2,1,3,1,1,1
27874577,15154129,-33.9385715,18.8741563,-2.4674077,0.727388,-0.8006653,-0.23954648,0.1367903,0.0,-0.042428426,0.043047495,0.017803146,-0.030707743,-1.5294534,0.020032808,-0.32580173,-0.045914628,-0.5172493,0.24241847,3.1147773,-0.023052674,131.77486,0.1,0.2996195,0.44979727,0.15436925,0.106859446,inf,inf,inf,inf,1,1,1,1,2,0,2,1,3,1,1,1
27884581,15154129,-33.9385715,18.8741563,-2.4683378,0.7277726,-0.8015871,-0.23954648,0.1367903,0.0,-0.043734048,0.04376294,0.014092628,-0.034974866,-1.5294534,0.020032808,-0.32580173,-0.22778948,-0.54913294,-0.52844334,3.1145916,-0.023052674,131.77486,0.1,0.3005633,0.45047534,0.15495893,0.10702675,inf,inf,inf,inf,1,1,1,1,2,0,2,1,3,1,1,1
27894585,15154129,-33.9385715,18.8741563,-2.4692473,0.728148,-0.80248475,-0.23954648,0.1367903,0.0,-0.043992803,0.04543302,0.013961885,-0.03561812,-1.5294534,0.020032808,-0.32580173,-0.32440948,0.3766667,-0.3375881,3.114163,-0.023052674,131.77486,0.1,0.30151415,0.45115548,0.15555805,0.10719492,inf,inf,inf,inf,1,1,1,1,2,0,2,1,3,1,1,1
27904589,15154129,-33.9385715,18.8741563,-2.4701395,0.7285144,-0.80336595,-0.23954648,0.1367903,0.0,-0.041305043,0.04153144,0.014610256,-0.035439942,-1.5294534,0.020032808,-0.32580173,0.65532124,-0.23746064,0.6658815,3.1141858,-0.023052674,131.77486,0.1,0.3024719,0.45183772,0.1561898,0.10736475,inf,inf,inf,inf,1,1,1,1,2,0,2,1,3,1,1,1
27914593,15154129,-33.9385715,18.8741563,-2.4710152,0.72887987,-0.80421597,-0.23954648,0.1367903,0.0,-0.044981115,0.042691533,0.010471556,-0.040008135,-1.5294534,0.020032808,-0.32580173,0.010216517,-0.20990825,-0.34524015,3.1141193,-0.023052674,131.77486,0.1,0.3034369,0.45252204,0.15679362,0.107533574,inf,inf,inf,inf,1,1,1,1,2,0,2,1,3,1,1,1
27924598,15154129,-33.9385715,18.8741563,-2.4718583,0.72923285,-0.80503356,-0.23954648,0.1367903,0.0,-0.04447297,0.0422125,0.012194936,-0.03867536,-1.5294534,0.020032808,-0.32580173,-0.6685908,0.24480934,-0.13317612,3.1134386,-0.023052674,131.77486,0.1,0.3044089,0.45320842,0.15738842,0.10770148,inf,inf,inf,inf,1,1,1,1,2,0,2,1,3,1,1,1
27934653,15154129,-33.9385715,18.8741563,-2.4726908,0.72959,-0.8058207,-0.23954648,0.1367903,0.0,-0.042171583,0.041323926,0.0108766705,-0.040346667,-1.5294534,0.020032808,-0.32580173,0.35914627,-0.17659229,-0.20161334,3.1132724,-0.023052674,131.77486,0.1,0.30538803,0.45389688,0.15802814,0.1078724,inf,inf,inf,inf,1,1,1,1,2,0,2,1,3,1,1,1
27944649,15154129,-33.9385715,18.8741563,-2.473488,0.72994393,-0.80656934,-0.23954648,0.1367903,0.0,-0.041632716,0.042705316,0.013697064,-0.03784353,-1.5294534,0.020032808,-0.32580173,0.17969224,0.18027069,0.18594955,3.1130064,-0.023052674,131.77486,0.1,0.3063743,0.45458743,0.15864581,0.10804125,inf,inf,inf,inf,1,1,1,1,2,0,2,1,3,1,1,1
27954614,15154129,-33.9385715,18.8741563,-2.474256,0.73030293,-0.807297,-0.23954648,0.1367903,0.0,-0.040611804,0.04327841,0.013066417,-0.03875682,-1.5294534,0.020032808,-0.32580173,0.14479135,0.20555507,0.6777753,3.1126215,-0.023052674,131.77486,0.1,0.30736786,0.4552801,0.1592423,0.10820922,inf,inf,inf,inf,1,1,1,1,2,0,2,1,3,1,1,1
27964615,15154129,-33.9385715,18.8741563,-2.474991,0.730674,-0.8084704,-0.23954648,0.1367903,0.0,-0.039238423,0.044571742,0.011044063,-0.041527823,-1.5294534,0.020032808,-0.32580173,0.023315614,0.2192967,-0.67095613,3.1122892,-0.023052674,131.77486,0.1,0.30836853,0.45215386,0.15987682,0.10800528,inf,inf,inf,inf,1,1,1,1,2,0,2,1,3,1,1,1
27974619,15154129,-33.9385715,18.8741563,-2.4756973,0.73106194,-0.80959934,-0.23954648,0.1367903,0.0,-0.037554078,0.046490233,0.014402942,-0.038864195,-1.5294534,0.020032808,-0.32580173,0.21633674,0.29158488,0.1654244,3.111372,-0.023052674,131.77486,0.1,0.30937636,0.45284486,0.16049112,0.10817307,inf,inf,inf,inf,1,1,1,1,2,0,2,1,3,1,1,1
27984623,15154129,-33.9385715,18.8741563,-2.4763722,0.7314591,-0.8106775,-0.23954648,0.1367903,0.0,-0.037250124,0.045907408,0.013722374,-0.040188186,-1.5294534,0.020032808,-0.32580173,-0.09868989,-0.049755145,0.06653292,3.111016,-0.023052674,131.77486,0.1,0.31039155,0.45353794,0.16109654,0.10834157,inf,inf,inf,inf,1,1,1,1,2,0,2,1,3,1,1,1
27994628,15154129,-33.9385715,18.8741563,-2.4770257,0.7318664,-0.8117046,-0.23954648,0.1367903,0.0,-0.035537694,0.047179673,0.016564919,-0.03793974,-1.5294534,0.020032808,-0.32580173,0.28265736,-0.16792193,0.52923006,3.1103475,-0.023052674,131.77486,0.1,0.3114138,0.4542331,0.16172692,0.10851085,inf,inf,inf,inf,1,1,1,1,2,0,2,1,3,1,1,1
28004632,15154129,-33.9385715,18.8741563,-2.4778922,0.7322238,-0.81273544,-0.23954648,0.1367903,0.0,-0.038430586,0.049598776,0.013538684,-0.04155719,-1.5294534,0.020032808,-0.32580173,-0.20449336,0.58328986,-0.057515826,3.10931,-0.023052674,131.77486,0.1,0.29278857,0.4497194,0.14953247,0.105643034,inf,inf,inf,inf,1,1,1,1,2,0,2,1,3,1,1,1
28014637,15154129,-33.9385715,18.8741563,-2.478732,0.73258215,-0.8137017,-0.23954648,0.1367903,0.0,-0.0376143,0.046472315,0.016318077,-0.039321158,-1.5294534,0.020032808,-0.32580173,-0.37235767,-0.10443302,-0.4608803,3.1087527,-0.023052674,131.77486,0.1,0.29368287,0.45038792,0.15010877,0.105809204,inf,inf,inf,inf,1,1,1,1,2,0,2,1,3,1,1,1
28024642,15154129,-33.9385715,18.8741563,-2.4795647,0.73294806,-0.8146285,-0.23954648,0.1367903,0.0,-0.036534596,0.047278695,0.021627713,-0.034508765,-1.5294534,0.020032808,-0.32580173,0.6737414,-0.43693966,1.4443141,3.1076093,-0.023052674,131.77486,0.1,0.29458395,0.45105848,0.15070833,0.1059771,inf,inf,inf,inf,1,1,1,1,2,0,2,1,3,1,1,1
28034645,15154129,-33.9385715,18.8741563,-2.480371,0.7332961,-0.81548125,-0.23954648,0.1367903,0.0,-0.041059285,0.047326785,0.017466605,-0.03912349,-1.5294534,0.020032808,-0.32580173,-0.7013354,0.43423328,-0.71969694,3.1065123,-0.023052674,131.77486,0.1,0.2954918,0.45173106,0.1513114,0.10614452,inf,inf,inf,inf,1,1,1,1,2,0,2,1,3,1,1,1
28044649,15154129,-33.9385715,18.8741563,-2.4811656,0.7336368,-0.81628174,-0.23954648,0.1367903,0.0,-0.03717003,0.042690087,0.024895487,-0.032105647,-1.5294534,0.020032808,-0.32580173,0.3767544,-0.61127114,0.49906504,3.1058745,-0.023052674,131.77486,0.1,0.29640657,0.4524057,0.15189388,0.106312096,inf,inf,inf,inf,1,1,1,1,2,0,2,1,3,1,1,1
28054655,15154129,-33.9385715,18.8741563,-2.4819436,0.73396754,-0.8176174,-0.23954648,0.1367903,0.0,-0.040032048,0.04493714,0.022541832,-0.035408102,-1.5294534,0.020032808,-0.32580173,0.042672474,0.020812498,0.49254727,3.1050568,-0.023052674,131.77486,0.1,0.29732814,0.44933307,0.15250462,0.106124364,inf,inf,inf,inf,1,1,1,1,2,0,2,1,3,1,1,1
28064658,15154129,-33.9385715,18.8741563,-2.4826877,0.73427814,-0.8188658,-0.23954648,0.1367903,0.0,-0.0385511,0.041437086,0.024111593,-0.03472253,-1.5294534,0.020032808,-0.32580173,-0.3574307,0.048138622,-0.6012756,3.1042051,-0.023052674,131.77486,0.1,0.2982566,0.4500062,0.15309739,0.106290795,inf,inf,inf,inf,1,1,1,1,2,0,2,1,3,1,1,1
28074662,15154129,-33.9385715,18.8741563,-2.4834259,0.7345902,-0.8200665,-0.23954648,0.1367903,0.0,-0.03821905,0.040726166,0.02796316,-0.031692833,-1.5294534,0.020032808,-0.32580173,0.42852587,-0.5190513,0.93591756,3.1035514,-0.023052674,131.77486,0.1,0.299192,0.45068136,0.15368092,0.106457874,inf,inf,inf,inf,1,1,1,1,2,0,2,1,3,1,1,1
28084667,15154129,-33.9385715,18.8741563,-2.4841387,0.7348737,-0.8211989,-0.23954648,0.1367903,0.0,-0.040794797,0.03961548,0.024022363,-0.03639571,-1.5294534,0.020032808,-0.32580173,-0.566237,0.24352972,-0.5619126,3.1027122,-0.023052674,131.77486,0.1,0.30013424,0.45135856,0.15429677,0.106626,inf,inf,inf,inf,1,1,1,1,2,0,2,1,3,1,1,1
28094671,15154129,-33.9385715,18.8741563,-2.4848504,0.735148,-0.822286,-0.23954648,0.1367903,0.0,-0.038712807,0.036008146,0.027722562,-0.033399977,-1.5294534,0.020032808,-0.32580173,0.43432325,-0.5254032,0.2903758,3.1020517,-0.023052674,131.77486,0.1,0.30108353,0.45203784,0.15488218,0.10679234,inf,inf,inf,inf,1,1,1,1,2,0,2,1,3,1,1,1
28104683,15154129,-33.9385715,18.8741563,-2.4855514,0.7354057,-0.82332236,-0.23954648,0.1367903,0.0,-0.04365379,0.037483394,0.025515586,-0.036255833,-1.5294534,0.020032808,-0.32580173,-0.6050309,0.26978755,-0.13413836,3.101502,-0.023052674,131.77486,0.1,0.30203968,0.45271915,0.15548481,0.10695961,inf,inf,inf,inf,1,1,1,1,2,0,2,1,3,1,1,1
28114679,15154129,-33.9385715,18.8741563,-2.4862561,0.7356481,-0.8243107,-0.23954648,0.1367903,0.0,-0.041237745,0.032594435,0.028073017,-0.03429409,-1.5294534,0.020032808,-0.32580173,0.47097555,-0.42086735,0.3014832,3.1006565,-0.023052674,131.77486,0.1,0.30300292,0.45340252,0.1560689,0.10712522,inf,inf,inf,inf,1,1,1,1,2,0,2,1,3,1,1,1
28124687,15154129,-33.9385715,18.8741563,-2.4869573,0.73588175,-0.8252451,-0.23954648,0.1367903,0.0,-0.04750684,0.034230065,0.02673024,-0.036181666,-1.5294534,0.020032808,-0.32580173,-0.68367225,-0.008538358,-0.2049909,3.1001742,-0.023052674,131.77486,0.1,0.303973,0.4540879,0.15666775,0.107291676,inf,inf,inf,inf,1,1,1,1,2,0,2,1,3,1,1,1
28134701,15154129,-33.9385715,18.8741563,-2.4876459,0.73609483,-0.82672876,-0.23954648,0.1367903,0.0,-0.041731812,0.029453494,0.030251307,-0.03376029,-1.5294534,0.020032808,-0.32580173,0.52322984,-0.4000528,0.50001824,3.099633,-0.023052674,131.77486,0.1,0.3049502,0.4509843,0.15727958,0.10709216,inf,inf,inf,inf,1,1,1,1,2,0,2,1,3,1,1,1
28144693,15154129,-33.9385715,18.8741563,-2.4883232,0.73628813,-0.828141,-0.23954648,0.1367903,0.0,-0.047463167,0.029546296,0.02740487,-0.03763259,-1.5294534,0.020032808,-0.32580173,-0.43937194,-0.042993907,-0.4222583,3.0993571,-0.023052674,131.77486,0.1,0.30593452,0.4516681,0.15786496,0.10725744,inf,inf,inf,inf,1,1,1,1,2,0,2,1,3,1,1,1
28154697,15154129,-33.9385715,18.8741563,-2.4889548,0.7364602,-0.8294888,-0.23954648,0.1367903,0.0,-0.038153294,0.025576709,0.032220505,-0.03377238,-1.5294534,0.020032808,-0.32580173,0.52111346,-0.33447626,0.5487048,3.0994592,-0.023052674,131.77486,0.1,0.30692568,0.45235398,0.15846767,0.10742406,inf,inf,inf,inf,1,1,1,1,2,0,2,1,3,1,1,1
28164701,15154129,-33.9385715,18.8741563,-2.4895797,0.73661244,-0.8307802,-0.23954648,0.1367903,0.0,-0.042037427,0.02478765,0.02890816,-0.037971836,-1.5294534,0.020032808,-0.32580173,0.5847302,-0.15075406,0.09561431,3.0994737,-0.023052674,131.77486,0.1,0.3079241,0.4530419,0.1590572,0.10758958,inf,inf,inf,inf,1,1,1,1,2,0,2,1,3,1,1,1
28174707,15154129,-33.9385715,18.8741563,-2.4901378,0.7367536,-0.83200186,-0.23954648,0.1367903,0.0,-0.036174912,0.022486567,0.031289734,-0.03641225,-1.5294534,0.020032808,-0.32580173,-0.15786922,-0.42772698,-0.09563616,3.0995796,-0.023052674,131.77486,0.1,0.30892944,0.4537319,0.15967955,0.107756935,inf,inf,inf,inf,1,1,1,1,2,0,2,1,3,1,1,1
28184710,15154129,-33.9385715,18.8741563,-2.4906933,0.7368741,-0.83317924,-0.23954648,0.1367903,0.0,-0.03621237,0.022847738,0.030592654,-0.03786815,-1.5294534,0.020032808,-0.32580173,0.8033887,0.31467536,0.27366906,3.0997162,-0.023052674,131.77486,0.1,0.30994207,0.45442396,0.16026546,0.107922815,inf,inf,inf,inf,1,1,1,1,2,0,2,1,3,1,1,1
28194714,15154129,-33.9385715,18.8741563,-2.4911919,0.73698944,-0.8342976,-0.23954648,0.1367903,0.0,-0.03298644,0.019166688,0.030674765,-0.03848451,-1.5294534,0.020032808,-0.32580173,0.027413584,-0.5353458,-0.034298193,3.0997975,-0.023052674,131.77486,0.1,0.3109617,0.45511806,0.16084242,0.10808674,inf,inf,inf,inf,1,1,1,1,2,0,2,1,3,1,1,1
28204718,15154129,-33.9385715,18.8741563,-2.4917688,0.73707825,-0.835378,-0.23954648,0.1367903,0.0,-0.03132659,0.020057352,0.030360172,-0.03945437,-1.5294534,0.020032808,-0.32580173,0.15081361,0.3066153,-0.23749083,3.0998666,-0.023052674,131.77486,0.1,0.29236877,0.45060748,0.14879864,0.10525242,inf,inf,inf,inf,1,1,1,1,2,0,2,1,3,1,1,1
28214723,15154129,-33.9385715,18.8741563,-2.49232,0.7371645,-0.83643705,-0.23954648,0.1367903,0.0,-0.028884308,0.016138352,0.029119583,-0.041293625,-1.5294534,0.020032808,-0.32580173,0.6652137,-0.65569097,0.4436737,3.0999541,-0.023052674,131.77486,0.1,0.29326156,0.4512752,0.1493316,0.105414525,inf,inf,inf,inf,1,1,1,1,2,0,2,1,3,1,1,1
28224727,15154129,-33.9385715,18.8741563,-2.492801,0.7372147,-0.8381063,-0.23954648,0.1367903,0.0,-0.026849912,0.015061167,0.028518775,-0.043125734,-1.5294534,0.020032808,-0.32580173,-0.6386775,0.093623295,-0.720864,3.0997791,-0.023052674,131.77486,0.1,0.29416093,0.44822356,0.14992668,0.105230294,inf,inf,inf,inf,1,1,1,1,2,0,2,1,3,1,1,1
28234731,15154129,-33.9385715,18.8741563,-2.4932766,0.737256,-0.8397476,-0.23954648,0.1367903,0.0,-0.023400825,0.013301653,0.02705825,-0.045734897,-1.5294534,0.020032808,-0.32580173,0.9744642,-0.14506711,0.39490065,3.10008,-0.023052674,131.77486,0.1,0.29506704,0.4488898,0.15049459,0.10539515,inf,inf,inf,inf,1,1,1,1,2,0,2,1,3,1,1,1
28244738,15154129,-33.9385715,18.8741563,-2.4936607,0.7372733,-0.84130996,-0.23954648,0.1367903,0.0,-0.018528145,0.010386682,0.026708169,-0.0471544,-1.5294534,0.020032808,-0.32580173,-0.26357442,-0.22743228,-0.33389843,3.0998569,-0.023052674,131.77486,0.1,0.2959798,0.44955802,0.15105432,0.105558306,inf,inf,inf,inf,1,1,1,1,2,0,2,1,3,1,1,1
28254740,15154129,-33.9385715,18.8741563,-2.4940293,0.73727936,-0.8428255,-0.23954648,0.1367903,0.0,-0.017225739,0.011284082,0.025972325,-0.048883196,-1.5294534,0.020032808,-0.32580173,0.5531461,0.2386512,0.09960622,3.0999162,-0.023052674,131.77486,0.1,0.2968993,0.4502283,0.15165663,0.10572522,inf,inf,inf,inf,1,1,1,1,2,0,2,1,3,1,1,1
28264745,15154129,-33.9385715,18.8741563,-2.494344,0.737284,-0.8442871,-0.23954648,0.1367903,0.0,-0.012584865,0.007939166,0.025901705,-0.049873535,-1.5294534,0.020032808,-0.32580173,0.4703045,-0.5970409,0.3231594,3.0998487,-0.023052674,131.77486,0.1,0.29782555,0.45090055,0.15221535,0.10588865,inf,inf,inf,inf,1,1,1,1,2,0,2,1,3,1,1,1
28274749,15154129,-33.9385715,18.8741563,-2.4946082,0.73726434,-0.84565383,-0.23954648,0.1367903,0.0,-0.010497031,0.008365832,0.030010926,-0.046613336,-1.5294534,0.020032808,-0.32580173,0.07003007,0.19807607,0.1557405,3.099807,-0.023052674,131.77486,0.1,0.2987586,0.45157486,0.15284146,0.106054686,inf,inf,inf,inf,1,1,1,1,2,0,2,1,3,1,1,1
28284753,15154129,-33.9385715,18.8741563,-2.4948652,0.73726517,-0.8469909,-0.23954648,0.1367903,0.0,-0.011591105,0.008914057,0.022796368,-0.05460889,-1.5294534,0.020032808,-0.32580173,0.16532153,-0.37978083,-0.4626331,3.099983,-0.023052674,131.77486,0.1,0.29969847,0.4522512,0.15348406,0.10621888,inf,inf,inf,inf,1,1,1,1,2,0,2,1,3,1,1,1
28294758,15154129,-33.9385715,18.8741563,-2.49508,0.737249,-0.84826756,-0.23954648,0.1367903,0.0,-0.006326049,0.0071062148,0.03008687,-0.04803411,-1.5294534,0.020032808,-0.32580173,0.42557418,-0.16630802,0.8214952,3.0996516,-0.023052674,131.77486,0.1,0.30064517,0.45292953,0.15421134,0.106384836,inf,inf,inf,inf,1,1,1,1,2,0,2,1,3,1,1,1
28304761,15154129,-33.9385715,18.8741563,-2.4952755,0.7372413,-0.84946424,-0.23954648,0.1367903,0.0,-0.008859456,0.00999622,0.026484957,-0.052289166,-1.5294534,0.020032808,-0.32580173,-0.10503726,0.20927836,-0.5723145,3.099519,-0.023052674,131.77486,0.1,0.30159873,0.45360988,0.15495285,0.106548935,inf,inf,inf,inf,1,1,1,1,2,0,2,1,3,1,1,1
28314767,15154129,-33.9385715,18.8741563,-2.4954493,0.7372456,-0.8512657,-0.23954648,0.1367903,0.0,-0.005594375,0.0089175245,0.025020625,-0.054977104,-1.5294534,0.020032808,-0.32580173,0.20144932,-0.26775834,-0.03489712,3.0990212,-0.023052674,131.77486,0.1,0.30255923,0.45051315,0.15578707,0.106352314,inf,inf,inf,inf,1,1,1,1,2,0,2,1,3,1,1,1
28324772,15154129,-33.9385715,18.8741563,-2.4956133,0.7372385,-0.8529801,-0.23954648,0.1367903,0.0,-0.007525893,0.008638339,0.03068907,-0.050446555,-1.5294534,0.020032808,-0.32580173,-0.008899726,0.02438351,0.9121285,3.0984852,-0.023052674,131.77486,0.1,0.30352676,0.45119193,0.15662445,0.10651653,inf,inf,inf,inf,1,1,1,1,2,0,2,1,3,1,1,1
28334774,15154129,-33.9385715,18.8741563,-2.495742,0.73723656,-0.85457623,-0.23954648,0.1367903,0.0,-0.0023385356,0.009486525,0.02912858,-0.05306256,-1.5294534,0.020032808,-0.32580173,0.39061356,0.07063942,-0.9200634,3.0982344,-0.023052674,131.77486,0.1,0.30450115,0.45187268,0.15755801,0.10668345,inf,inf,inf,inf,1,1,1,1,2,0,2,1,3,1,1,1
28344779,15154129,-33.9385715,18.8741563,-2.4958797,0.7372359,-0.85618794,-0.23954648,0.1367903,0.0,-0.010504022,0.008479467,0.022352876,-0.06081454,-1.5294534,0.020032808,-0.32580173,-0.82422495,-0.17865618,0.18578184,3.097787,-0.023052674,131.77486,0.1,0.3054828,0.45255554,0.15850869,0.10684882,inf,inf,inf,inf,1,1,1,1,2,0,2,1,3,1,1,1
28354816,15154129,-33.9385715,18.8741563,-2.4960246,0.73722625,-0.8576667,-0.23954648,0.1367903,0.0,-0.0036972868,0.00817557,0.037125785,-0.046942253,-1.5294534,0.020032808,-0.32580173,1.1309698,0.033978675,1.2463567,3.0974493,-0.023052674,131.77486,0.1,0.3064715,0.4532404,0.15952548,0.10701483,inf,inf,inf,inf,1,1,1,1,2,0,2,1,3,1,1,1
28364787,15154129,-33.9385715,18.8741563,-2.4961236,0.7372079,-0.85906184,-0.23954648,0.1367903,0.0,-0.0075294706,0.006131092,0.02697127,-0.057924185,-1.5294534,0.020032808,-0.32580173,-0.7874525,-0.2614633,-1.2495469,3.097183,-0.023052674,131.77486,0.1,0.30746758,0.4539273,0.16058098,0.10718154,inf,inf,inf,inf,1,1,1,1,2,0,2,1,3,1,1,1
28374792,15154129,-33.9385715,18.8741563,-2.496262,0.7371701,-0.86044866,-0.23954648,0.1367903,0.0,-0.009007282,0.0048308424,0.03015735,-0.055495743,-1.5294534,0.020032808,-0.32580173,0.3406395,-0.035170987,0.7938805,3.096949,-0.023052674,131.77486,0.1,0.3084709,0.45461625,0.1616888,0.10734763,inf,inf,inf,inf,1,1,1,1,2,0,2,1,3,1,1,1
28384797,15154129,-33.9385715,18.8741563,-2.4963777,0.73712635,-0.8617531,-0.23954648,0.1367903,0.0,-0.008404447,0.0038853574,0.028516687,-0.05782646,-1.5294534,0.020032808,-0.32580173,-0.17773251,-0.19377181,-0.3155009,3.0967603,-0.023052674,131.77486,0.1,0.30948183,0.45530725,0.16284177,0.10751518,inf,inf,inf,inf,1,1,1,1,2,0,2,1,3,1,1,1
28394800,15154129,-33.9385715,18.8741563,-2.4964905,0.737055,-0.8636559,-0.23954648,0.1367903,0.0,-0.008359253,0.00015489716,0.0363073,-0.05133943,-1.5294534,0.020032808,-0.32580173,0.10712739,-0.26435605,1.1939085,3.096262,-0.023052674,131.77486,0.1,0.3105002,0.4521787,0.16403686,0.1073075,inf,inf,inf,inf,1,1,1,1,2,0,2,1,3,1,1,1
28404808,15154129,-33.9385715,18.8741563,-2.4970489,0.7370756,-0.86525404,-0.23954648,0.1367903,0.0,-0.010582422,0.0038867174,0.029860575,-0.058799572,-1.5294534,0.020032808,-0.32580173,-0.42683172,0.4329291,-1.3568342,3.0959735,-0.023052674,131.77486,0.1,0.2919593,0.4477939,0.15195711,0.104534656,inf,inf,inf,inf,1,1,1,1,2,0,2,1,3,1,1,1
28414846,15154129,-33.9385715,18.8741563,-2.497619,0.73710287,-0.86688036,-0.23954648,0.1367903,0.0,-0.012043851,0.00015256827,0.024527615,-0.06506588,-1.5294534,0.020032808,-0.32580173,0.19903918,-0.66704905,0.29398292,3.095644,-0.023052674,131.77486,0.1,0.29284644,0.44845536,0.15317051,0.10470068,inf,inf,inf,inf,1,1,1,1,2,0,2,1,3,1,1,1
28424827,15154129,-33.9385715,18.8741563,-2.4981308,0.7370866,-0.8683748,-0.23954648,0.1367903,0.0,-0.0059516192,-0.0016075111,0.03786568,-0.052584536,-1.5294534,0.020032808,-0.32580173,0.4427547,0.0832461,1.077227,3.0952494,-0.023052674,131.77486,0.1,0.29374036,0.4491188,0.15443343,0.104866154,inf,inf,inf,inf,1,1,1,1,2,0,2,1,3,1,1,1
28434812,15154129,-33.9385715,18.8741563,-2.4986112,0.73709536,-0.8697815,-0.23954648,0.1367903,0.0,-0.009452101,0.0034147585,0.02886328,-0.062369738,-1.5294534,0.020032808,-0.32580173,-0.44158226,0.31421426,-1.2247546,3.0949385,-0.023052674,131.77486,0.1,0.29464123,0.44978422,0.15573281,0.10503239,inf,inf,inf,inf,1,1,1,1,2,0,2,1,3,1,1,1
28444822,15154129,-33.9385715,18.8741563,-2.4990911,0.7371099,-0.87120116,-0.23954648,0.1367903,0.0,-0.008084001,0.0003358359,0.026151055,-0.06579383,-1.5294534,0.020032808,-0.32580173,0.36089972,-0.4119025,0.081287555,3.0945883,-0.023052674,131.77486,0.1,0.2955491,0.45045164,0.15705766,0.10519628,inf,inf,inf,inf,1,1,1,1,2,0,2,1,3,1,1,1
28454826,15154129,-33.9385715,18.8741563,-2.4995341,0.7371017,-0.8725515,-0.23954648,0.1367903,0.0,-0.008301884,0.00030237547,0.029103797,-0.06348478,-1.5294534,0.020032808,-0.32580173,-0.30655485,0.08415062,0.31702256,3.0941463,-0.023052674,131.77486,0.1,0.29646415,0.45112106,0.15847939,0.10536533,inf,inf,inf,inf,1,1,1,1,2,0,2,1,3,1,1,1
28464831,15154129,-33.9385715,18.8741563,-2.4999793,0.73710513,-0.8738045,-0.23954648,0.1367903,0.0,-0.008963006,0.0023585353,0.034154292,-0.05901254,-1.5294534,0.020032808,-0.32580173,0.2750996,0.16340029,0.5476636,3.093885,-0.023052674,131.77486,0.1,0.29738662,0.4517925,0.15986782,0.105528474,inf,inf,inf,inf,1,1,1,1,2,0,2,1,3,1,1,1
28474835,15154129,-33.9385715,18.8741563,-2.5003788,0.7371235,-0.874989,-0.23954648,0.1367903,0.0,-0.004771536,0.0035841377,0.028312907,-0.06536936,-1.5294534,0.020032808,-0.32580173,0.3324891,0.06820375,-1.2185305,3.0935078,-0.023052674,131.77486,0.1,0.29831648,0.45246592,0.16135405,0.10569618,inf,inf,inf,inf,1,1,1,1,2,0,2,1,3,1,1,1
28484839,15154129,-33.9385715,18.8741563,-2.5007634,0.7371549,-0.8768132,-0.23954648,0.1367903,0.0,-0.010207062,0.0055121304,0.019321233,-0.07541154,-1.5294534,0.020032808,-0.32580173,-0.8368102,0.18056162,-0.2991674,3.0927782,-0.023052674,131.77486,0.1,0.299254,0.44939062,0.1628618,0.10550591,inf,inf,inf,inf,1,1,1,1,2,0,2,1,3,1,1,1
28494844,15154129,-33.9385715,18.8741563,-2.501179,0.7371919,-0.878529,-0.23954648,0.1367903,0.0,-0.011125672,0.0056706844,0.033201866,-0.062497303,-1.5294534,0.020032808,-0.32580173,0.23214038,0.1404694,1.543267,3.092249,-0.023052674,131.77486,0.1,0.30019945,0.45006245,0.16437525,0.105670415,inf,inf,inf,inf,1,1,1,1,2,0,2,1,3,1,1,1
28504850,15154129,-33.9385715,18.8741563,-2.5015512,0.7372436,-0.88009846,-0.23954648,0.1367903,0.0,-0.0059951223,0.009123952,0.030572154,-0.066012606,-1.5294534,0.020032808,-0.32580173,0.5376191,0.54630107,-0.9415399,3.0917902,-0.023052674,131.77486,0.10025674,0.30115277,0.45073628,0.16595957,0.105837956,inf,inf,inf,inf,1,1,1,1,2,0,2,1,3,1,1,1
28514852,15154129,-33.9385715,18.8741563,-2.5018766,0.7373281,-0.8816707,-0.23954648,0.1367903,0.0,-0.005431267,0.011157664,0.025102265,-0.072291024,-1.5294534,0.020032808,-0.32580173,-0.035738606,0.12688103,-0.020111732,3.0908782,-0.023052674,131.77486,0.10182899,0.3021142,0.4514121,0.16760093,0.10600729,inf,inf,inf,inf,1,1,1,1,2,0,2,1,3,1,1,1
28524857,15154129,-33.9385715,18.8741563,-2.5021846,0.73741955,-0.8831415,-0.23954648,0.1367903,0.0,-0.0049980385,0.012025355,0.035244927,-0.06288221,-1.5294534,0.020032808,-0.32580173,0.030377073,0.2671808,1.0192654,3.08999,-0.023052674,131.77486,0.1032998,0.3030842,0.45209,0.16917801,0.106168754,inf,inf,inf,inf,1,1,1,1,2,0,2,1,3,1,1,1
28534861,15154129,-33.9385715,18.8741563,-2.5024805,0.7375466,-0.8845278,-0.23954648,0.1367903,0.0,-0.0058227684,0.018291188,0.026275137,-0.07251469,-1.5294534,0.020032808,-0.32580173,-0.12968525,0.75339705,-1.5360152,3.089084,-0.023052674,131.77486,0.10468608,0.3040623,0.45276985,0.1708992,0.106339715,inf,inf,inf,inf,1,1,1,1,2,0,2,1,3,1,1,1
28544864,15154129,-33.9385715,18.8741563,-2.502773,0.73772323,-0.8859638,-0.23954648,0.1367903,0.0,-0.006271842,0.019912392,0.020369286,-0.079014465,-1.5294534,0.020032808,-0.32580173,0.042482857,-0.1562951,0.2365383,3.087784,-0.023052674,131.77486,0.10612208,0.30504945,0.45345172,0.17259377,0.10650601,inf,inf,inf,inf,1,1,1,1,2,0,2,1,3,1,1,1
28554871,15154129,-33.9385715,18.8741563,-2.5030365,0.7378793,-0.88724923,-0.23954648,0.1367903,0.0,-0.002695975,0.016725449,0.041834503,-0.058077283,-1.5294534,0.020032808,-0.32580173,0.39951825,-0.17208257,2.4105635,3.0864482,-0.023052674,131.77486,0.10740751,0.30604535,0.45413563,0.17434092,0.10667393,inf,inf,inf,inf,1,1,1,1,2,0,2,1,3,1,1,1
28564873,15154129,-33.9385715,18.8741563,-2.5032604,0.7380493,-0.88833255,-0.23954648,0.1367903,0.0,-0.000976307,0.022745518,0.043061685,-0.05731482,-1.5294534,0.020032808,-0.32580173,0.1614704,0.7113973,-0.8773917,3.085389,-0.023052674,131.77486,0.108490825,0.30705053,0.45482156,0.1760727,0.106838845,inf,inf,inf,inf,1,1,1,1,2,0,2,1,3,1,1,1
28574931,15154129,-33.9385715,18.8741563,-2.5034719,0.73828685,-0.89008635,-0.23954648,0.1367903,0.0,-0.0025622211,0.028346777,0.022073677,-0.07931419,-1.5294534,0.020032808,-0.32580173,-0.19701798,0.3253686,-2.0015278,3.0842865,-0.023052674,131.77486,0.11024463,0.30806473,0.45170012,0.17790651,0.10663827,inf,inf,inf,inf,1,1,1,1,2,0,2,1,3,1,1,1
28584887,15154129,-33.9385715,18.8741563,-2.503694,0.7385302,-0.89189076,-0.23954648,0.1367903,0.0,-0.0046035717,0.025188215,0.022868624,-0.07944544,-1.5294534,0.020032808,-0.32580173,-0.07360082,-0.45315608,1.0278543,3.0830605,-0.023052674,131.77486,0.11204904,0.30908874,0.45238432,0.17975825,0.10680893,inf,inf,inf,inf,1,1,1,1,2,0,2,1,3,1,1,1
28594886,15154129,-33.9385715,18.8741563,-2.5039074,0.7387313,-0.8934858,-0.23954648,0.1367903,0.0,-0.0030422541,0.021425966,0.044808906,-0.05834973,-1.5294534,0.020032808,-0.32580173,0.23847792,-0.18137203,2.1872883,3.082169,-0.023052674,131.77486,0.11364406,0.31012264,0.45307058,0.18155155,0.10697185,inf,inf,inf,inf,1,1,1,1,2,0,2,1,3,1,1,1
28604891,15154129,-33.9385715,18.8741563,-2.504208,0.73886204,-0.89487565,-0.23954648,0.1367903,0.0,0.0007915589,0.024416488,0.04530703,-0.058614247,-1.5294534,0.020032808,-0.32580173,0.4653699,0.5269035,-0.80069035,3.0816374,-0.023052674,131.77486,0.115033925,0.29157108,0.44868836,0.16657676,0.104224704,inf,inf,inf,inf,1,1,1,1,2,0,2,1,3,1,1,1
28614895,15154129,-33.9385715,18.8741563,-2.5044568,0.73904264,-0.89631695,-0.23954648,0.1367903,0.0,0.003044648,0.028932666,0.025193047,-0.079415634,-1.5294534,0.020032808,-0.32580173,0.06978625,0.18024544,-2.0640867,3.0809834,-0.023052674,131.77486,0.116475224,0.2924488,0.44934902,0.1683652,0.10439285,inf,inf,inf,inf,1,1,1,1,2,0,2,1,3,1,1,1
28624899,15154129,-33.9385715,18.8741563,-2.5046866,0.739219,-0.89783186,-0.23954648,0.1367903,0.0,0.0022133074,0.023798056,0.02157722,-0.083646886,-1.5294534,0.020032808,-0.32580173,-0.12063053,-0.7389191,0.34175828,3.0800018,-0.023052674,131.77486,0.117990136,0.29333487,0.4500116,0.17015964,0.10455822,inf,inf,inf,inf,1,1,1,1,2,0,2,1,3,1,1,1
28634903,15154129,-33.9385715,18.8741563,-2.5049162,0.7393262,-0.89920145,-0.23954648,0.1367903,0.0,0.0006186996,0.017315859,0.0396519,-0.066118345,-1.5294534,0.020032808,-0.32580173,-0.12250636,-0.43233433,2.064867,3.0790153,-0.023052674,131.77486,0.11935973,0.29422957,0.45067623,0.17197509,0.10472319,inf,inf,inf,inf,1,1,1,1,2,0,2,1,3,1,1,1
28644910,15154129,-33.9385715,18.8741563,-2.505135,0.73940307,-0.9003635,-0.23954648,0.1367903,0.0,0.0019965607,0.01706854,0.047207393,-0.059042785,-1.5294534,0.020032808,-0.32580173,0.26465574,0.052386634,0.19670458,3.0782218,-0.023052674,131.77486,0.120521784,0.29513296,0.4513428,0.17385812,0.10489221,inf,inf,inf,inf,1,1,1,1,2,0,2,1,3,1,1,1
28654912,15154129,-33.9385715,18.8741563,-2.5053177,0.73948884,-0.9020702,-0.23954648,0.1367903,0.0,0.0047256947,0.018756773,0.037114818,-0.07014078,-1.5294534,0.020032808,-0.32580173,0.28862888,0.17964344,-1.274185,3.0775788,-0.023052674,131.77486,0.1222285,0.29604566,0.44828835,0.1757803,0.104712024,inf,inf,inf,inf,1,1,1,1,2,0,2,1,3,1,1,1
28664916,15154129,-33.9385715,18.8741563,-2.5054598,0.7395819,-0.90381545,-0.23954648,0.1367903,0.0,0.0073120086,0.01816926,0.027293388,-0.08088052,-1.5294534,0.020032808,-0.32580173,0.23581219,-0.116542995,-0.6484122,3.0769315,-0.023052674,131.77486,0.12397373,0.29696777,0.44895336,0.17763239,0.10487346,inf,inf,inf,inf,1,1,1,1,2,0,2,1,3,1,1,1
28674921,15154129,-33.9385715,18.8741563,-2.505575,0.73964405,-0.90552396,-0.23954648,0.1367903,0.0,0.007947766,0.012149342,0.029584097,-0.07942439,-1.5294534,0.020032808,-0.32580173,0.09910733,-0.7397488,0.49289376,3.076201,-0.023052674,131.77486,0.12568223,0.29789928,0.44962034,0.1795771,0.105041794,inf,inf,inf,inf,1,1,1,1,2,0,2,1,3,1,1,1
28684926,15154129,-33.9385715,18.8741563,-2.5056713,0.73964554,-0.9071095,-0.23954648,0.1367903,0.0,0.008019084,0.007659212,0.036276784,-0.07348588,-1.5294534,0.020032808,-0.32580173,-0.10161882,-0.2665244,0.6640702,3.0754526,-0.023052674,131.77486,0.12726778,0.29884067,0.45028928,0.18155442,0.10521136,inf,inf,inf,inf,1,1,1,1,2,0,2,1,3,1,1,1
28694932,15154129,-33.9385715,18.8741563,-2.5057597,0.73962134,-0.90859085,-0.23954648,0.1367903,0.0,0.00810463,0.0065589687,0.03552295,-0.074916825,-1.5294534,0.020032808,-0.32580173,0.092392,-0.016538583,-0.33016467,3.0748494,-0.023052674,131.77486,0.12874913,0.29979217,0.45096022,0.18349053,0.105374426,inf,inf,inf,inf,1,1,1,1,2,0,2,1,3,1,1,1
28704935,15154129,-33.9385715,18.8741563,-2.505826,0.7395996,-0.9100571,-0.23954648,0.1367903,0.0,0.010092178,0.007834902,0.027638832,-0.08340397,-1.5294534,0.020032808,-0.32580173,0.24444519,0.16029279,-0.76469547,3.07425,-0.023052674,131.77486,0.1302154,0.3007539,0.45163316,0.18552844,0.105545186,inf,inf,inf,inf,1,1,1,1,2,0,2,1,3,1,1,1
28714938,15154129,-33.9385715,18.8741563,-2.505857,0.73959583,-0.91153324,-0.23954648,0.1367903,0.0,0.013136203,0.00966581,0.020889463,-0.09068527,-1.5294534,0.020032808,-0.32580173,0.38214442,0.099985234,-0.6035322,3.0737147,-0.023052674,131.77486,0.13169152,0.30172634,0.4523081,0.18756938,0.10571456,inf,inf,inf,inf,1,1,1,1,2,0,2,1,3,1,1,1
28724943,15154129,-33.9385715,18.8741563,-2.5058424,0.739586,-0.9130049,-0.23954648,0.1367903,0.0,0.016370164,0.006853678,0.016558578,-0.09547988,-1.5294534,0.020032808,-0.32580173,0.24858612,-0.31539205,-0.28760552,3.0732214,-0.023052674,131.77486,0.13316315,0.30270985,0.45298505,0.18952136,0.105873846,inf,inf,inf,inf,1,1,1,1,2,0,2,1,3,1,1,1
28734947,15154129,-33.9385715,18.8741563,-2.5057936,0.73954356,-0.91444415,-0.23954648,0.1367903,0.0,0.018134106,0.0037630014,0.0152514875,-0.097185485,-1.5294534,0.020032808,-0.32580173,0.14356929,-0.22367342,-0.080144614,3.072649,-0.023052674,131.77486,0.13460243,0.30370396,0.45366392,0.19157816,0.106040046,inf,inf,inf,inf,1,1,1,1,2,0,2,1,3,1,1,1
28744952,15154129,-33.9385715,18.8741563,-2.5057297,0.73946315,-0.9166402,-0.23954648,0.1367903,0.0,0.017466012,-0.0012513966,0.014319942,-0.099263616,-1.5294534,0.020032808,-0.32580173,-0.08857422,-0.52418995,0.0011859995,3.072176,-0.023052674,131.77486,0.1367985,0.30470955,0.45056435,0.19374056,0.1058519,inf,inf,inf,inf,1,1,1,1,2,0,2,1,3,1,1,1
28754956,15154129,-33.9385715,18.8741563,-2.505663,0.73933387,-0.9187604,-0.23954648,0.1367903,0.0,0.017311508,-0.005248835,0.013053042,-0.10158161,-1.5294534,0.020032808,-0.32580173,0.06681348,-0.28434798,-0.1431143,3.0717077,-0.023052674,131.77486,0.1389187,0.3057272,0.4512416,0.19582532,0.10601832,inf,inf,inf,inf,1,1,1,1,2,0,2,1,3,1,1,1
28764961,15154129,-33.9385715,18.8741563,-2.5055847,0.7391714,-0.9208071,-0.23954648,0.1367903,0.0,0.01732873,-0.008380993,0.013546061,-0.102047555,-1.5294534,0.020032808,-0.32580173,-0.03711043,-0.2938848,0.1502192,3.0714056,-0.023052674,131.77486,0.1409654,0.30675688,0.45192087,0.19785024,0.106176905,inf,inf,inf,inf,1,1,1,1,2,0,2,1,3,1,1,1
28774965,15154129,-33.9385715,18.8741563,-2.5054967,0.73897254,-0.9227701,-0.23954648,0.1367903,0.0,0.018215403,-0.012315386,0.013615329,-0.102848776,-1.5294534,0.020032808,-0.32580173,0.19118126,-0.33606812,-0.064395644,3.0713127,-0.023052674,131.77486,0.14292836,0.30779833,0.4526021,0.19997938,0.10634349,inf,inf,inf,inf,1,1,1,1,2,0,2,1,3,1,1,1
28784968,15154129,-33.9385715,18.8741563,-2.505384,0.73874384,-0.924668,-0.23954648,0.1367903,0.0,0.020162802,-0.014274743,0.011896355,-0.10535341,-1.5294534,0.020032808,-0.32580173,0.20941612,-0.13955112,-0.18525262,3.0711818,-0.023052674,131.77486,0.1448263,0.30885214,0.4532853,0.20220193,0.10651756,inf,inf,inf,inf,1,1,1,1,2,0,2,1,3,1,1,1
28794974,15154129,-33.9385715,18.8741563,-2.505239,0.73849756,-0.92651314,-0.23954648,0.1367903,0.0,0.022729822,-0.016705938,0.009846171,-0.10810767,-1.5294534,0.020032808,-0.32580173,0.21600448,-0.37882593,-0.1621107,3.071146,-0.023052674,131.77486,0.14667141,0.30991936,0.45397058,0.20437144,0.106685944,inf,inf,inf,inf,1,1,1,1,2,0,2,1,3,1,1,1
28805005,15154129,-33.9385715,18.8741563,-2.5050614,0.7382223,-0.92831886,-0.23954648,0.1367903,0.0,0.024931248,-0.019098815,0.004966827,-0.113612905,-1.5294534,0.020032808,-0.32580173,0.1602334,-0.18971413,-0.6056355,3.0712285,-0.023052674,131.77486,0.14847714,0.31099957,0.45465785,0.2064749,0.10684525,inf,inf,inf,inf,1,1,1,1,2,0,2,1,3,1,1,1
28814981,15154129,-33.9385715,18.8741563,-2.5048397,0.7380352,-0.93011206,-0.23954648,0.1367903,0.0,0.028599627,-0.021062,0.00034572926,-0.11878408,-1.5294534,0.020032808,-0.32580173,0.3706475,-0.23551816,-0.3104585,3.0712361,-0.023052674,131.77486,0.15027034,0.2919641,0.45024356,0.18555567,0.10408837,inf,inf,inf,inf,1,1,1,1,2,0,2,1,3,1,1,1
28824986,15154129,-33.9385715,18.8741563,-2.5045753,0.73781466,-0.93184656,-0.23954648,0.1367903,0.0,0.03086413,-0.024867805,0.0044473074,-0.11516151,-1.5294534,0.020032808,-0.32580173,0.17410618,-0.42221716,0.6730547,3.0711403,-0.023052674,131.77486,0.15200484,0.2928463,0.45090526,0.18759388,0.10425638,inf,inf,inf,inf,1,1,1,1,2,0,2,1,3,1,1,1
28834990,15154129,-33.9385715,18.8741563,-2.5042818,0.7375563,-0.934225,-0.23954648,0.1367903,0.0,0.033060916,-0.027369514,0.0138933845,-0.10691279,-1.5294534,0.020032808,-0.32580173,0.23905392,-0.18706939,1.055003,3.0709074,-0.023052674,131.77486,0.1543833,0.29373956,0.44785678,0.18964523,0.104077555,inf,inf,inf,inf,1,1,1,1,2,0,2,1,3,1,1,1
28845042,15154129,-33.9385715,18.8741563,-2.5039542,0.7372753,-0.9364218,-0.23954648,0.1367903,0.0,0.03527022,-0.029233826,0.022354463,-0.09954833,-1.5294534,0.020032808,-0.32580173,0.16941945,-0.29460683,0.81413895,3.0708916,-0.023052674,131.77486,0.15658009,0.2946441,0.44851694,0.1916684,0.104240924,inf,inf,inf,inf,1,1,1,1,2,0,2,1,3,1,1,1
28855028,15154129,-33.9385715,18.8741563,-2.5036082,0.7369762,-0.9384642,-0.23954648,0.1367903,0.0,0.035557386,-0.029602075,0.027140519,-0.09576183,-1.5294534,0.020032808,-0.32580173,-0.027891573,0.07756111,0.26136202,3.0709898,-0.023052674,131.77486,0.1586225,0.29556,0.44917905,0.19369428,0.10440291,inf,inf,inf,inf,1,1,1,1,2,0,2,1,3,1,1,1
28865016,15154129,-33.9385715,18.8741563,-2.5032635,0.7366886,-0.94042015,-0.23954648,0.1367903,0.0,0.03349161,-0.02699442,0.023426443,-0.10038223,-1.5294534,0.020032808,-0.32580173,-0.25061718,0.23270704,-0.57681304,3.0711923,-0.023052674,131.77486,0.16057843,0.29648748,0.44984314,0.19576013,0.10456759,inf,inf,inf,inf,1,1,1,1,2,0,2,1,3,1,1,1
28875008,15154129,-33.9385715,18.8741563,-2.5029252,0.7364109,-0.9423621,-0.23954648,0.1367903,0.0,0.032993387,-0.02722192,0.014587158,-0.11003836,-1.5294534,0.020032808,-0.32580173,-0.042088035,-0.09674185,-0.9934913,3.0714045,-0.023052674,131.77486,0.16252041,0.29742688,0.4505092,0.19786248,0.10473448,inf,inf,inf,inf,1,1,1,1,2,0,2,1,3,1,1,1
28885012,15154129,-33.9385715,18.8741563,-2.502581,0.73612857,-0.9443132,-0.23954648,0.1367903,0.0,0.032392647,-0.02688452,0.007982967,-0.11737349,-1.5294534,0.020032808,-0.32580173,-0.2059704,0.034335587,-0.43468842,3.0714765,-0.023052674,131.77486,0.1644715,0.29837883,0.4511772,0.19997506,0.10490129,inf,inf,inf,inf,1,1,1,1,2,0,2,1,3,1,1,1
28895017,15154129,-33.9385715,18.8741563,-2.502241,0.73582864,-0.94620746,-0.23954648,0.1367903,0.0,0.031430718,-0.030235484,0.011291898,-0.1147132,-1.5294534,0.020032808,-0.32580173,-0.09458995,-0.35018137,0.5662484,3.07167,-0.023052674,131.77486,0.16636574,0.29934335,0.4518472,0.202089,0.10506685,inf,inf,inf,inf,1,1,1,1,2,0,2,1,3,1,1,1
28905021,15154129,-33.9385715,18.8741563,-2.501908,0.7354886,-0.94796866,-0.23954648,0.1367903,0.0,0.029337721,-0.033667535,0.019221542,-0.107353084,-1.5294534,0.020032808,-0.32580173,-0.2660172,-0.21457933,0.79854923,3.0719974,-0.023052674,131.77486,0.16812694,0.3003209,0.45251915,0.20420653,0.10523161,inf,inf,inf,inf,1,1,1,1,2,0,2,1,3,1,1,1
28915025,15154129,-33.9385715,18.8741563,-2.5015798,0.7351186,-0.95043516,-0.23954648,0.1367903,0.0,0.029404093,-0.035944913,0.025328137,-0.102594,-1.5294534,0.020032808,-0.32580173,0.010078654,-0.13718511,0.6131154,3.0724835,-0.023052674,131.77486,0.17059344,0.30131158,0.44944108,0.2063329,0.10503852,inf,inf,inf,inf,1,1,1,1,2,0,2,1,3,1,1,1
28925029,15154129,-33.9385715,18.8741563,-2.501243,0.73472995,-0.9527511,-0.23954648,0.1367903,0.0,0.02986842,-0.03709811,0.030083757,-0.09907543,-1.5294534,0.020032808,-0.32580173,0.06308982,-0.054992966,0.4469095,3.0730119,-0.023052674,131.77486,0.17290938,0.3023158,0.45011142,0.20847322,0.10520316,inf,inf,inf,inf,1,1,1,1,2,0,2,1,3,1,1,1
28935033,15154129,-33.9385715,18.8741563,-2.5008788,0.7343322,-0.9549413,-0.23954648,0.1367903,0.0,0.03360129,-0.036713686,0.03203594,-0.09825476,-1.5294534,0.020032808,-0.32580173,0.3977822,0.2120128,0.15112649,3.0735304,-0.023052674,131.77486,0.17509955,0.30333373,0.45078373,0.21061966,0.10536664,inf,inf,inf,inf,1,1,1,1,2,0,2,1,3,1,1,1
28945042,15154129,-33.9385715,18.8741563,-2.5004725,0.7339406,-0.95702845,-0.23954648,0.1367903,0.0,0.036533244,-0.03606484,0.033401847,-0.09791842,-1.5294534,0.020032808,-0.32580173,0.22676963,0.11194699,0.19896637,3.073978,-0.023052674,131.77486,0.17718673,0.30436578,0.45145804,0.21277839,0.105530754,inf,inf,inf,inf,1,1,1,1,2,0,2,1,3,1,1,1
28955041,15154129,-33.9385715,18.8741563,-2.5000458,0.73355675,-0.9590145,-0.23954648,0.1367903,0.0,0.036206994,-0.03526083,0.03490647,-0.09734544,-1.5294534,0.020032808,-0.32580173,-0.20253515,0.04327412,0.16338326,3.074495,-0.023052674,131.77486,0.17917275,0.3054122,0.4521343,0.21495417,0.105695546,inf,inf,inf,inf,1,1,1,1,2,0,2,1,3,1,1,1
28965046,15154129,-33.9385715,18.8741563,-2.499632,0.7331748,-0.9609171,-0.23954648,0.1367903,0.0,0.033449203,-0.03494513,0.033332262,-0.09975773,-1.5294534,0.020032808,-0.32580173,-0.29595217,0.04823796,-0.18096834,3.074976,-0.023052674,131.77486,0.1810754,0.3064732,0.45281255,0.21714047,0.10586014,inf,inf,inf,inf,1,1,1,1,2,0,2,1,3,1,1,1
28975050,15154129,-33.9385715,18.8741563,-2.499241,0.73279905,-0.96275294,-0.23954648,0.1367903,0.0,0.030950194,-0.034082964,0.032950543,-0.10088717,-1.5294534,0.020032808,-0.32580173,-0.2048257,0.025971575,0.07045486,3.0753803,-0.023052674,131.77486,0.18291122,0.30754933,0.45349285,0.21934621,0.10602647,inf,inf,inf,inf,1,1,1,1,2,0,2,1,3,1,1,1
28985054,15154129,-33.9385715,18.8741563,-2.4988508,0.7324287,-0.9645031,-0.23954648,0.1367903,0.0,0.03237532,-0.03338867,0.034451295,-0.100047916,-1.5294534,0.020032808,-0.32580173,0.2147129,0.033314798,0.1531465,3.0758371,-0.023052674,131.77486,0.18466139,0.30864072,0.45417508,0.2215589,0.10619217,inf,inf,inf,inf,1,1,1,1,2,0,2,1,3,1,1,1
28995059,15154129,-33.9385715,18.8741563,-2.4984229,0.73206985,-0.9661547,-0.23954648,0.1367903,0.0,0.03702319,-0.031254616,0.038713932,-0.09636369,-1.5294534,0.020032808,-0.32580173,0.42504308,0.22407603,0.63472086,3.0763226,-0.023052674,131.77486,0.18631297,0.30974787,0.45485932,0.22375628,0.10635525,inf,inf,inf,inf,1,1,1,1,2,0,2,1,3,1,1,1
29005063,15154129,-33.9385715,18.8741563,-2.4983234,0.73175985,-0.9681586,-0.23954648,0.1367903,0.0,0.03980025,-0.028485676,0.042411648,-0.093637735,-1.5294534,0.020032808,-0.32580173,0.18647592,0.238975,0.19564453,3.0768988,-0.023052674,131.77486,0.18831688,0.29070166,0.44679707,0.19788493,0.10327986,inf,inf,inf,inf,1,1,1,1,2,0,2,1,3,1,1,1
29015068,15154129,-33.9385715,18.8741563,-2.4981973,0.7314689,-0.97006965,-0.23954648,0.1367903,0.0,0.03970693,-0.026273351,0.0409779,-0.09594562,-1.5294534,0.020032808,-0.32580173,-0.04143034,0.25348648,-0.11975543,3.0774016,-0.023052674,131.77486,0.19022793,0.29158086,0.4474507,0.19985613,0.10343972,inf,inf,inf,inf,1,1,1,1,2,0,2,1,3,1,1,1
29025072,15154129,-33.9385715,18.8741563,-2.4980688,0.7311953,-0.97191656,-0.23954648,0.1367903,0.0,0.0377079,-0.024752744,0.03885886,-0.09884564,-1.5294534,0.020032808,-0.32580173,-0.19414008,0.09435916,-0.13041742,3.0777466,-0.023052674,131.77486,0.19207484,0.29247242,0.44810626,0.201845,0.10360046,inf,inf,inf,inf,1,1,1,1,2,0,2,1,3,1,1,1
29035127,15154129,-33.9385715,18.8741563,-2.4979508,0.73092264,-0.9736944,-0.23954648,0.1367903,0.0,0.034498215,-0.024812676,0.0383042,-0.100091636,-1.5294534,0.020032808,-0.32580173,-0.32948753,-0.007922896,0.03230245,3.0779967,-0.023052674,131.77486,0.19385266,0.2933769,0.4487638,0.2038655,0.10376488,inf,inf,inf,inf,1,1,1,1,2,0,2,1,3,1,1,1
29045088,15154129,-33.9385715,18.8741563,-2.497854,0.73064154,-0.9753852,-0.23954648,0.1367903,0.0,0.031952005,-0.02569592,0.042060636,-0.09694054,-1.5294534,0.020032808,-0.32580173,-0.1895066,0.015736764,0.5989269,3.0781848,-0.023052674,131.77486,0.19554347,0.29429463,0.44942322,0.20590587,0.10393138,inf,inf,inf,inf,1,1,1,1,2,0,2,1,3,1,1,1
29055093,15154129,-33.9385715,18.8741563,-2.4977582,0.73035437,-0.9769321,-0.23954648,0.1367903,0.0,0.03125441,-0.024943164,0.050699424,-0.08882494,-1.5294534,0.020032808,-0.32580173,-0.06801495,0.21843523,0.8908169,3.0783377,-0.023052674,131.77486,0.19709039,0.29522592,0.4500846,0.20794962,0.104096755,inf,inf,inf,inf,1,1,1,1,2,0,2,1,3,1,1,1
29065092,15154129,-33.9385715,18.8741563,-2.49765,0.7300853,-0.97833526,-0.23954648,0.1367903,0.0,0.032297734,-0.022045061,0.055369906,-0.08459852,-1.5294534,0.020032808,-0.32580173,0.12716922,0.3179178,0.3132764,3.0784948,-0.023052674,131.77486,0.19849354,0.2961712,0.45074794,0.20997715,0.10425883,inf,inf,inf,inf,1,1,1,1,2,0,2,1,3,1,1,1
29075093,15154129,-33.9385715,18.8741563,-2.4975204,0.72984207,-0.97967124,-0.23954648,0.1367903,0.0,0.033139218,-0.019398374,0.04999966,-0.09033706,-1.5294534,0.020032808,-0.32580173,0.08390887,0.25503436,-0.7066656,3.078664,-0.023052674,131.77486,0.19982952,0.2971304,0.4514132,0.21200216,0.104418755,inf,inf,inf,inf,1,1,1,1,2,0,2,1,3,1,1,1
29085098,15154129,-33.9385715,18.8741563,-2.497363,0.72962105,-0.9810075,-0.23954648,0.1367903,0.0,0.036034103,-0.016882095,0.04288544,-0.097746894,-1.5294534,0.020032808,-0.32580173,0.34287438,0.27189478,-0.64611095,3.0788083,-0.023052674,131.77486,0.2011658,0.2981039,0.45208043,0.21404019,0.10457965,inf,inf,inf,inf,1,1,1,1,2,0,2,1,3,1,1,1
29095102,15154129,-33.9385715,18.8741563,-2.4971695,0.7294114,-0.98305696,-0.23954648,0.1367903,0.0,0.038210977,-0.017197886,0.04122094,-0.100378096,-1.5294534,0.020032808,-0.32580173,0.23903677,-0.12466986,-0.009060982,3.0787964,-0.023052674,131.77486,0.20321524,0.29909185,0.44900846,0.21608962,0.10438692,inf,inf,inf,inf,1,1,1,1,2,0,2,1,3,1,1,1
29105106,15154129,-33.9385715,18.8741563,-2.4969409,0.72918427,-0.9850139,-0.23954648,0.1367903,0.0,0.040835775,-0.019017879,0.04307308,-0.099393286,-1.5294534,0.020032808,-0.32580173,0.2294837,-0.09797159,0.22819428,3.0787408,-0.023052674,131.77486,0.20517218,0.30009475,0.44967407,0.21815398,0.1045492,inf,inf,inf,inf,1,1,1,1,2,0,2,1,3,1,1,1
29115111,15154129,-33.9385715,18.8741563,-2.4966862,0.72894466,-0.9868695,-0.23954648,0.1367903,0.0,0.04166836,-0.019768003,0.044416312,-0.098822325,-1.5294534,0.020032808,-0.32580173,0.07991907,-0.10781405,0.18517172,3.0788012,-0.023052674,131.77486,0.2070278,0.30111274,0.45034158,0.2202272,0.10471124,inf,inf,inf,inf,1,1,1,1,2,0,2,1,3,1,1,1
29125116,15154129,-33.9385715,18.8741563,-2.4964223,0.7286949,-0.98863125,-0.23954648,0.1367903,0.0,0.040745374,-0.019867346,0.04455822,-0.099361196,-1.5294534,0.020032808,-0.32580173,-0.15505023,0.09647392,-0.07820308,3.078898,-0.023052674,131.77486,0.20878953,0.30214638,0.45101106,0.22230764,0.104873516,inf,inf,inf,inf,1,1,1,1,2,0,2,1,3,1,1,1
29135119,15154129,-33.9385715,18.8741563,-2.496169,0.72845846,-0.990336,-0.23954648,0.1367903,0.0,0.038267784,-0.016625863,0.039960682,-0.10455172,-1.5294534,0.020032808,-0.32580173,-0.24047676,0.44081536,-0.5317937,3.0788836,-0.023052674,131.77486,0.21049428,0.30319577,0.45168248,0.22440208,0.1050369,inf,inf,inf,inf,1,1,1,1,2,0,2,1,3,1,1,1
29145127,15154129,-33.9385715,18.8741563,-2.4959404,0.72825736,-0.9920236,-0.23954648,0.1367903,0.0,0.03415861,-0.012636135,0.03284747,-0.11217409,-1.5294534,0.020032808,-0.32580173,-0.39932925,0.45402426,-0.72436315,3.078775,-0.023052674,131.77486,0.21218187,0.30426124,0.45235586,0.22650069,0.10519927,inf,inf,inf,inf,1,1,1,1,2,0,2,1,3,1,1,1
29155142,15154129,-33.9385715,18.8741563,-2.4957397,0.72809255,-0.9937125,-0.23954648,0.1367903,0.0,0.03166985,-0.008668594,0.024780419,-0.12066959,-1.5294534,0.020032808,-0.32580173,-0.14303032,0.50255555,-0.81522816,3.078509,-0.023052674,131.77486,0.21387076,0.30534318,0.4530312,0.22860178,0.10536108,inf,inf,inf,inf,1,1,1,1,2,0,2,1,3,1,1,1
29165132,15154129,-33.9385715,18.8741563,-2.4955344,0.7279679,-0.99540997,-0.23954648,0.1367903,0.0,0.033965245,-0.00456062,0.017919613,-0.12788187,-1.5294534,0.020032808,-0.32580173,0.38476387,0.45207426,-0.48954806,3.0781934,-0.023052674,131.77486,0.21556824,0.30644172,0.4537085,0.2307036,0.105521195,inf,inf,inf,inf,1,1,1,1,2,0,2,1,3,1,1,1
29175136,15154129,-33.9385715,18.8741563,-2.4952807,0.72787017,-0.99791455,-0.23954648,0.1367903,0.0,0.039658915,-0.0036875291,0.017230362,-0.12969725,-1.5294534,0.020032808,-0.32580173,0.6774289,-0.018818503,0.118611,3.0779338,-0.023052674,131.77486,0.21807283,0.30755728,0.45060626,0.23281373,0.10531796,inf,inf,inf,inf,1,1,1,1,2,0,2,1,3,1,1,1
29185140,15154129,-33.9385715,18.8741563,-2.4949481,0.727768,-1.0003188,-0.23954648,0.1367903,0.0,0.04812941,-0.0045595868,0.017716784,-0.13022885,-1.5294534,0.020032808,-0.32580173,0.8888947,-0.089334026,0.018945891,3.0779305,-0.023052674,131.77486,0.22047704,0.30868995,0.45128182,0.23494083,0.10547988,inf,inf,inf,inf,1,1,1,1,2,0,2,1,3,1,1,1
29195145,15154129,-33.9385715,18.8741563,-2.4945233,0.7276492,-1.0026243,-0.23954648,0.1367903,0.0,0.056398552,-0.0062887315,0.018794673,-0.13006483,-1.5294534,0.020032808,-0.32580173,0.7882287,-0.09867373,0.16526416,3.0781524,-0.023052674,131.77486,0.22278255,0.30984032,0.45195934,0.23707542,0.10564231,inf,inf,inf,inf,1,1,1,1,2,0,2,1,3,1,1,1
29205149,15154129,-33.9385715,18.8741563,-2.494426,0.7278091,-1.0044432,-0.23954648,0.1367903,0.0,0.0615079,-0.0077436143,0.019395033,-0.12988123,-1.5294534,0.020032808,-0.32580173,0.4158952,-0.042147763,-0.025287071,3.0783253,-0.023052674,131.77486,0.22460145,0.29034963,0.4477032,0.20684664,0.10295265,inf,inf,inf,inf,1,1,1,1,2,0,2,1,3,1,1,1
29215154,15154129,-33.9385715,18.8741563,-2.49428,0.72795206,-1.0062076,-0.23954648,0.1367903,0.0,0.063736714,-0.007797336,0.015254473,-0.13436031,-1.5294534,0.020032808,-0.32580173,0.3070064,0.073895715,-0.41319168,3.0785682,-0.023052674,131.77486,0.22636586,0.29124317,0.4483561,0.20872614,0.10311074,inf,inf,inf,inf,1,1,1,1,2,0,2,1,3,1,1,1
29225158,15154129,-33.9385715,18.8741563,-2.4940948,0.72810066,-1.007942,-0.23954648,0.1367903,0.0,0.06627636,-0.0048327027,0.0115149245,-0.13836318,-1.5294534,0.020032808,-0.32580173,0.3167584,0.35451698,-0.2965883,3.0788815,-0.023052674,131.77486,0.22810024,0.29215065,0.4490109,0.2106046,0.103267014,inf,inf,inf,inf,1,1,1,1,2,0,2,1,3,1,1,1
29235163,15154129,-33.9385715,18.8741563,-2.4938686,0.7282851,-1.0096412,-0.23954648,0.1367903,0.0,0.06848315,0.0008235159,0.008250712,-0.14181904,-1.5294534,0.020032808,-0.32580173,0.20624897,0.5495572,-0.3184987,3.079047,-0.023052674,131.77486,0.22979945,0.29307222,0.4496676,0.21249656,0.10342415,inf,inf,inf,inf,1,1,1,1,2,0,2,1,3,1,1,1
29245167,15154129,-33.9385715,18.8741563,-2.4936254,0.72850627,-1.0113022,-0.23954648,0.1367903,0.0,0.06662953,0.004255819,0.005729677,-0.1444628,-1.5294534,0.020032808,-0.32580173,-0.23999777,0.3227376,-0.27451658,3.0793152,-0.023052674,131.77486,0.23146051,0.29400834,0.45032623,0.21441188,0.103585176,inf,inf,inf,inf,1,1,1,1,2,0,2,1,3,1,1,1
29255170,15154129,-33.9385715,18.8741563,-2.493415,0.7287514,-1.0129297,-0.23954648,0.1367903,0.0,0.060022235,0.008181461,0.002447416,-0.14780189,-1.5294534,0.020032808,-0.32580173,-0.5427509,0.55295056,-0.28916636,3.0793755,-0.023052674,131.77486,0.23308796,0.29495934,0.45098677,0.21633543,0.10374619,inf,inf,inf,inf,1,1,1,1,2,0,2,1,3,1,1,1
29265175,15154129,-33.9385715,18.8741563,-2.4932137,0.729054,-1.0153903,-0.23954648,0.1367903,0.0,0.06350198,0.0160958,0.0031242706,-0.14800824,-1.5294534,0.020032808,-0.32580173,0.7296125,0.7140829,0.21132843,3.0793328,-0.023052674,131.77486,0.23554856,0.29592562,0.44793513,0.21825418,0.10355751,inf,inf,inf,inf,1,1,1,1,2,0,2,1,3,1,1,1
29275180,15154129,-33.9385715,18.8741563,-2.4929183,0.7294048,-1.0177435,-0.23954648,0.1367903,0.0,0.074174725,0.018241163,0.0051617627,-0.14675483,-1.5294534,0.020032808,-0.32580173,1.0521337,-0.08552246,0.19360545,3.0792212,-0.023052674,131.77486,0.23790175,0.29690722,0.4485941,0.22017175,0.10371466,inf,inf,inf,inf,1,1,1,1,2,0,2,1,3,1,1,1
29285183,15154129,-33.9385715,18.8741563,-2.492528,0.7297354,-1.0200024,-0.23954648,0.1367903,0.0,0.07848232,0.0144703,0.004732353,-0.14787273,-1.5294534,0.020032808,-0.32580173,0.10307192,-0.48015705,-0.013387294,3.0787926,-0.023052674,131.77486,0.24016064,0.29790452,0.44925496,0.22209613,0.10387224,inf,inf,inf,inf,1,1,1,1,2,0,2,1,3,1,1,1
