timestamp,ref_timestamp,ref_lat,ref_lon,x,y,z,delta_xy[0],delta_xy[1],delta_z,vx,vy,vz,z_deriv,delta_vxy[0],delta_vxy[1],delta_vz,ax,ay,az,heading,delta_heading,ref_alt,dist_bottom,eph,epv,evh,evv,vxy_max,vz_max,hagl_min,hagl_max,xy_valid,z_valid,v_xy_valid,v_z_valid,xy_reset_counter,z_reset_counter,vxy_reset_counter,vz_reset_counter,heading_reset_counter,xy_global,z_global,dist_bottom_valid
494845852,15154129,-33.9385715,18.8741563,-1.8340508,1.5150437,-0.072032504,-0.23954648,0.1367903,0.0,0.052277658,0.0060625672,0.025911944,0.05711359,-1.5294534,0.020032808,-0.32580173,-0.026277078,-0.13039294,0.051760625,-2.9516332,0.2715371,131.77486,0.10599417,0.2930748,0.44329938,0.13709743,0.1063442,inf,inf,inf,inf,1,1,1,1,2,0,2,1,6,1,1,1
494855860,15154129,-33.9385715,18.8741563,-1.8336732,1.5148124,-0.0712118,-0.23954648,0.1367903,0.0,0.051974975,0.0053192577,0.024728956,0.05617062,-1.5294534,0.020032808,-0.32580173,-0.019256325,-0.03985247,-0.18391119,-2.9518943,0.2715371,131.77486,0.1052512,0.2939052,0.4439512,0.13759972,0.106521726,inf,inf,inf,inf,1,1,1,1,2,0,2,1,6,1,1,1
494865868,15154129,-33.9385715,18.8741563,-1.8332913,1.5145917,-0.07042452,-0.23954648,0.1367903,0.0,0.052644465,0.005455213,0.023728432,0.055387296,-1.5294534,0.020032808,-0.32580173,0.11512553,0.013404295,-0.06381101,-2.9518445,0.2715371,131.77486,0.1045571,0.29474097,0.44460505,0.13810381,0.106699355,inf,inf,inf,inf,1,1,1,1,2,0,2,1,6,1,1,1
494875865,15154129,-33.9385715,18.8741563,-1.8328967,1.5143845,-0.06966418,-0.23954648,0.1367903,0.0,0.05393606,0.005736993,0.023139361,0.05499252,-1.5294534,0.020032808,-0.32580173,0.17493552,0.0150243435,-0.07690267,-2.9514487,0.2715371,131.77486,0.10388378,0.29558215,0.445261,0.13860765,0.10687682,inf,inf,inf,inf,1,1,1,1,2,0,2,1,6,1,1,1
494885869,15154129,-33.9385715,18.8741563,-1.8324847,1.5141882,-0.068928964,-0.23954648,0.1367903,0.0,0.05527704,0.005286847,0.022525087,0.054551553,-1.5294534,0.020032808,-0.32580173,0.15776725,-0.043065637,-0.049290694,-2.9505222,0.2715371,131.77486,0.10327696,0.29642883,0.44591904,0.13910988,0.1070543,inf,inf,inf,inf,1,1,1,1,2,0,2,1,6,1,1,1
494895888,15154129,-33.9385715,18.8741563,-1.832056,1.5139939,-0.06821563,-0.23954648,0.1367903,0.0,0.0564352,0.003759101,0.022290692,0.054469563,-1.5294534,0.020032808,-0.32580173,0.12994084,-0.19950469,-0.03629092,-2.9489255,0.2715371,131.77486,0.1026962,0.29728088,0.44657913,0.13961402,0.10723179,inf,inf,inf,inf,1,1,1,1,2,0,2,1,6,1,1,1
494905922,15154129,-33.9385715,18.8741563,-1.831616,1.5137975,-0.067526065,-0.23954648,0.1367903,0.0,0.056562953,0.0032681995,0.020927157,0.053239144,-1.5294534,0.020032808,-0.32580173,-0.0023003821,0.031475205,-0.1965394,-2.9467654,0.2715371,131.77486,0.10217228,0.2981385,0.4472413,0.14012147,0.10740967,inf,inf,inf,inf,1,1,1,1,2,0,2,1,6,1,1,1
494915899,15154129,-33.9385715,18.8741563,-1.8311796,1.5136133,-0.06673763,-0.23954648,0.1367903,0.0,0.05589751,0.0040243743,0.019372078,0.05193256,-1.5294534,0.020032808,-0.32580173,-0.053173292,0.101005755,-0.17229544,-2.9444082,0.2715371,131.77486,0.10486145,0.29900154,0.44428232,0.14063126,0.107255325,inf,inf,inf,inf,1,1,1,1,2,0,2,1,6,1,1,1
494925884,15154129,-33.9385715,18.8741563,-1.8307493,1.5134481,-0.065984674,-0.23954648,0.1367903,0.0,0.054328065,0.0045753666,0.018098442,0.05088377,-1.5294534,0.020032808,-0.32580173,-0.20448881,0.005626087,-0.112358384,-2.9420433,0.2715371,131.77486,0.104298815,0.2998702,0.44494334,0.14114323,0.10743357,inf,inf,inf,inf,1,1,1,1,2,0,2,1,6,1,1,1
494935890,15154129,-33.9385715,18.8741563,-1.8303373,1.5132952,-0.06526645,-0.23954648,0.1367903,0.0,0.05150333,0.00511865,0.016153244,0.049140763,-1.5294534,0.020032808,-0.32580173,-0.3101219,0.14414407,-0.2157891,-2.939827,0.2715371,131.77486,0.103778586,0.30074432,0.4456064,0.14165656,0.10761172,inf,inf,inf,inf,1,1,1,1,2,0,2,1,6,1,1,1
494945894,15154129,-33.9385715,18.8741563,-1.8299526,1.513166,-0.06459416,-0.23954648,0.1367903,0.0,0.04850108,0.006937733,0.012821645,0.045989558,-1.5294534,0.020032808,-0.32580173,-0.2827596,0.19105215,-0.34749416,-2.9382687,0.2715371,131.77486,0.10330944,0.30162412,0.4462716,0.1421711,0.10779007,inf,inf,inf,inf,1,1,1,1,2,0,2,1,6,1,1,1
494955906,15154129,-33.9385715,18.8741563,-1.8295903,1.5130556,-0.06397131,-0.23954648,0.1367903,0.0,0.046406336,0.006651484,0.010319601,0.043646995,-1.5294534,0.020032808,-0.32580173,-0.18659915,-0.08476582,-0.19520858,-2.937431,0.2715371,131.77486,0.1028977,0.30250952,0.4469389,0.14268516,0.10796832,inf,inf,inf,inf,1,1,1,1,2,0,2,1,6,1,1,1
494965902,15154129,-33.9385715,18.8741563,-1.8292464,1.5129471,-0.06338685,-0.23954648,0.1367903,0.0,0.044574138,0.0065588304,0.008355911,0.041822627,-1.5294534,0.020032808,-0.32580173,-0.13084717,0.13698818,-0.22910737,-2.9371328,0.2715371,131.77486,0.10253075,0.30340043,0.4476083,0.14320157,0.10814651,inf,inf,inf,inf,1,1,1,1,2,0,2,1,6,1,1,1
494975906,15154129,-33.9385715,18.8741563,-1.8289135,1.5128562,-0.06283944,-0.23954648,0.1367903,0.0,0.04362992,0.007342789,0.006612503,0.040199313,-1.5294534,0.020032808,-0.32580173,-0.038825892,0.016357804,-0.15851301,-2.937472,0.2715371,131.77486,0.10221045,0.3042971,0.44827983,0.14371796,0.108324766,inf,inf,inf,inf,1,1,1,1,2,0,2,1,6,1,1,1
494985909,15154129,-33.9385715,18.8741563,-1.828582,1.5127631,-0.062327217,-0.23954648,0.1367903,0.0,0.04349067,0.005103206,0.0050089117,0.038696297,-1.5294534,0.020032808,-0.32580173,-0.011055911,-0.20655407,-0.11456342,-2.9380932,0.2715371,131.77486,0.10191221,0.3051993,0.44895342,0.14423403,0.10850276,inf,inf,inf,inf,1,1,1,1,2,0,2,1,6,1,1,1
494995914,15154129,-33.9385715,18.8741563,-1.8282486,1.5126776,-0.06173546,-0.23954648,0.1367903,0.0,0.04377379,0.007092316,0.0033086434,0.037190445,-1.5294534,0.020032808,-0.32580173,0.08179742,0.20080319,-0.20408686,-2.9389715,0.2715371,131.77486,0.10431975,0.30610728,0.44596428,0.14474818,0.1083378,inf,inf,inf,inf,1,1,1,1,2,0,2,1,6,1,1,1
495005918,15154129,-33.9385715,18.8741563,-1.8279055,1.5125821,-0.06117335,-0.23954648,0.1367903,0.0,0.04423749,0.001489477,0.0033743938,0.03742802,-1.5294534,0.020032808,-0.32580173,-0.035224233,-0.6044898,0.026884025,-2.9395723,0.2715371,131.77486,0.10401551,0.30702084,0.4466366,0.14526449,0.108515725,inf,inf,inf,inf,1,1,1,1,2,0,2,1,6,1,1,1
495015922,15154129,-33.9385715,18.8741563,-1.8273697,1.5122522,-0.060803697,-0.23954648,0.1367903,0.0,0.043627165,0.002534609,0.0013695485,0.035402294,-1.5294534,0.020032808,-0.32580173,-0.019263174,0.28958824,-0.2513203,-2.9399765,0.2715371,131.77486,0.1,0.29072464,0.44251925,0.13607226,0.10565543,inf,inf,inf,inf,1,1,1,1,2,0,2,1,6,1,1,1
495025936,15154129,-33.9385715,18.8741563,-1.8268381,1.5119296,-0.060460385,-0.23954648,0.1367903,0.0,0.0433589,-0.0014200606,0.0016761002,0.035675336,-1.5294534,0.020032808,-0.32580173,-0.1173906,-0.50328004,0.17898594,-2.9400275,0.2715371,131.77486,0.1,0.29154047,0.44316548,0.13658479,0.10583247,inf,inf,inf,inf,1,1,1,1,2,0,2,1,6,1,1,1
495035931,15154129,-33.9385715,18.8741563,-1.8263199,1.5116163,-0.06012402,-0.23954648,0.1367903,0.0,0.042772736,0.0029524197,0.001132078,0.035085835,-1.5294534,0.020032808,-0.32580173,0.048693378,0.5988063,-0.16609101,-2.9402928,0.2715371,131.77486,0.1,0.2923618,0.44381377,0.13709742,0.106009685,inf,inf,inf,inf,1,1,1,1,2,0,2,1,6,1,1,1
495045934,15154129,-33.9385715,18.8741563,-1.8258165,1.5113393,-0.05981172,-0.23954648,0.1367903,0.0,0.039774038,0.0025574933,0.00025670294,0.03415357,-1.5294534,0.020032808,-0.32580173,-0.4353553,0.010649336,0.0038823406,-2.9404218,0.2715371,131.77486,0.1,0.29318857,0.44446412,0.13760857,0.10618679,inf,inf,inf,inf,1,1,1,1,2,0,2,1,6,1,1,1
495055940,15154129,-33.9385715,18.8741563,-1.8253405,1.5110956,-0.059515003,-0.23954648,0.1367903,0.0,0.03943153,0.006383945,-0.00023333552,0.03359517,-1.5294534,0.020032808,-0.32580173,0.14222811,0.27703506,-0.085638545,-2.9408095,0.2715371,131.77486,0.1,0.29402074,0.44511655,0.13812084,0.106363796,inf,inf,inf,inf,1,1,1,1,2,0,2,1,6,1,1,1
495065986,15154129,-33.9385715,18.8741563,-1.8248781,1.510879,-0.05923906,-0.23954648,0.1367903,0.0,0.036152404,0.007887688,-0.0014007088,0.032349046,-1.5294534,0.020032808,-0.32580173,-0.38814247,0.54047114,-0.09803766,-2.9409323,0.2715371,131.77486,0.1,0.2948585,0.44577104,0.13863319,0.10654094,inf,inf,inf,inf,1,1,1,1,2,0,2,1,6,1,1,1
495075946,15154129,-33.9385715,18.8741563,-1.8244365,1.5107036,-0.05898387,-0.23954648,0.1367903,0.0,0.036774814,0.0084473295,-0.001964592,0.03169603,-1.5294534,0.020032808,-0.32580173,0.06264628,-0.34273517,0.0044130073,-2.940698,0.2715371,131.77486,0.1,0.29570165,0.44642755,0.13915221,0.10671828,inf,inf,inf,inf,1,1,1,1,2,0,2,1,6,1,1,1
495085951,15154129,-33.9385715,18.8741563,-1.8240112,1.5105532,-0.058748912,-0.23954648,0.1367903,0.0,0.03376978,0.013303641,-0.0019908652,0.031562135,-1.5294534,0.020032808,-0.32580173,-0.16634043,0.6596189,-0.029366868,-2.9402575,0.2715371,131.77486,0.1,0.29655042,0.4434826,0.13967122,0.106568165,inf,inf,inf,inf,1,1,1,1,2,0,2,1,6,1,1,1
495095954,15154129,-33.9385715,18.8741563,-1.823599,1.5104421,-0.05853173,-0.23954648,0.1367903,0.0,0.033112958,0.014758707,-0.0033237296,0.030112496,-1.5294534,0.020032808,-0.32580173,-0.25173038,0.43265253,-0.12935805,-2.939424,0.2715371,131.77486,0.1,0.2974047,0.444138,0.14019038,0.1067454,inf,inf,inf,inf,1,1,1,1,2,0,2,1,6,1,1,1
495105959,15154129,-33.9385715,18.8741563,-1.8232046,1.5103782,-0.058338836,-0.23954648,0.1367903,0.0,0.03182325,0.016710883,-0.004919331,0.028392036,-1.5294534,0.020032808,-0.32580173,-0.08262732,-0.2796647,-0.14420219,-2.9385002,0.2715371,131.77486,0.1,0.29826465,0.44479543,0.14071488,0.10692305,inf,inf,inf,inf,1,1,1,1,2,0,2,1,6,1,1,1
495115962,15154129,-33.9385715,18.8741563,-1.8228285,1.5103459,-0.058173202,-0.23954648,0.1367903,0.0,0.030013895,0.02174702,-0.0071639004,0.026014319,-1.5294534,0.020032808,-0.32580173,-0.120600194,0.5590211,-0.26917002,-2.9375389,0.2715371,131.77486,0.1,0.29913014,0.44545498,0.14124632,0.107100934,inf,inf,inf,inf,1,1,1,1,2,0,2,1,6,1,1,1
495125966,15154129,-33.9385715,18.8741563,-1.8224773,1.5103416,-0.05803488,-0.23954648,0.1367903,0.0,0.027039355,0.022389647,-0.008248366,0.02478943,-1.5294534,0.020032808,-0.32580173,-0.2888122,0.54325217,-0.07282065,-2.936352,0.2715371,131.77486,0.1,0.30000135,0.4461166,0.14177513,0.10727882,inf,inf,inf,inf,1,1,1,1,2,0,2,1,6,1,1,1
495135973,15154129,-33.9385715,18.8741563,-1.8221425,1.5103617,-0.05790841,-0.23954648,0.1367903,0.0,0.026537316,0.021227729,-0.008059267,0.024831232,-1.5294534,0.020032808,-0.32580173,-0.16460563,-0.3037201,0.010592121,-2.9350057,0.2715371,131.77486,0.1,0.30087823,0.44678032,0.14230177,0.10745654,inf,inf,inf,inf,1,1,1,1,2,0,2,1,6,1,1,1
495145982,15154129,-33.9385715,18.8741563,-1.8218255,1.5104096,-0.05779031,-0.23954648,0.1367903,0.0,0.024864273,0.024063256,-0.008564632,0.024171561,-1.5294534,0.020032808,-0.32580173,-0.08136464,-0.32500473,-0.12946427,-2.9337864,0.2715371,131.77486,0.1,0.30176076,0.44744614,0.14282827,0.10763408,inf,inf,inf,inf,1,1,1,1,2,0,2,1,6,1,1,1
495155985,15154129,-33.9385715,18.8741563,-1.8215309,1.5104864,-0.057700764,-0.23954648,0.1367903,0.0,0.022086943,0.028251745,-0.011930889,0.020644844,-1.5294534,0.020032808,-0.32580173,-0.26487705,0.4251125,-0.35840556,-2.932791,0.2715371,131.77486,0.1,0.30264905,0.44811404,0.1433547,0.10781181,inf,inf,inf,inf,1,1,1,1,2,0,2,1,6,1,1,1
495165992,15154129,-33.9385715,18.8741563,-1.8212639,1.5105786,-0.057639208,-0.23954648,0.1367903,0.0,0.01998875,0.029144347,-0.011692692,0.020716565,-1.5294534,0.020032808,-0.32580173,-0.13385114,0.8445643,0.18155052,-2.9321609,0.2715371,131.77486,0.1,0.30354297,0.44878405,0.14388266,0.10798942,inf,inf,inf,inf,1,1,1,1,2,0,2,1,6,1,1,1
495175988,15154129,-33.9385715,18.8741563,-1.8210084,1.5106906,-0.057392586,-0.23954648,0.1367903,0.0,0.01907702,0.028914787,-0.010824234,0.021593003,-1.5294534,0.020032808,-0.32580173,-0.23919395,0.40510944,-0.107503414,-2.9318209,0.2715371,131.77486,0.103228636,0.30444273,0.44579545,0.14440313,0.10782614,inf,inf,inf,inf,1,1,1,1,2,0,2,1,6,1,1,1
495185992,15154129,-33.9385715,18.8741563,-1.8207718,1.5108126,-0.0571781,-0.23954648,0.1367903,0.0,0.017240299,0.025328973,-0.01429702,0.01811488,-1.5294534,0.020032808,-0.32580173,-0.18677443,-0.75212646,-0.32088313,-2.9317408,0.2715371,131.77486,0.10304588,0.30534813,0.44646415,0.14493422,0.108003885,inf,inf,inf,inf,1,1,1,1,2,0,2,1,6,1,1,1
495195995,15154129,-33.9385715,18.8741563,-1.8205487,1.5109268,-0.0569841,-0.23954648,0.1367903,0.0,0.01645089,0.02316813,-0.012708057,0.019685956,-1.5294534,0.020032808,-0.32580173,-0.13511553,-1.1296487,0.122910514,-2.931691,0.2715371,131.77486,0.10287939,0.3062594,0.44713497,0.14545605,0.108181216,inf,inf,inf,inf,1,1,1,1,2,0,2,1,6,1,1,1
495206000,15154129,-33.9385715,18.8741563,-1.8203483,1.5110227,-0.056803275,-0.23954648,0.1367903,0.0,0.013543913,0.022434298,-0.014066954,0.018296456,-1.5294534,0.020032808,-0.32580173,-0.23792571,-0.5473668,-0.124785095,-2.9317055,0.2715371,131.77486,0.102708116,0.30717635,0.44780788,0.14598227,0.10835854,inf,inf,inf,inf,1,1,1,1,2,0,2,1,6,1,1,1
495216005,15154129,-33.9385715,18.8741563,-1.8201724,1.5111202,-0.05664468,-0.23954648,0.1367903,0.0,0.0115912855,0.023219401,-0.014493421,0.017827984,-1.5294534,0.020032808,-0.32580173,-0.1908697,-0.14514801,0.028934754,-2.9319007,0.2715371,131.77486,0.10256854,0.30809918,0.44848293,0.14651194,0.108536124,inf,inf,inf,inf,1,1,1,1,2,0,2,1,6,1,1,1
495226008,15154129,-33.9385715,18.8741563,-1.8201029,1.5108614,-0.056450963,-0.23954648,0.1367903,0.0,0.008807694,0.025186682,-0.014477005,0.01784057,-1.5294534,0.020032808,-0.32580173,-0.15526144,0.78054357,0.021598028,-2.9324143,0.2715371,131.77486,0.10356857,0.29159436,0.4443099,0.1371089,0.10567341,inf,inf,inf,inf,1,1,1,1,2,0,2,1,6,1,1,1
495236011,15154129,-33.9385715,18.8741563,-1.820062,1.5106201,-0.056276415,-0.23954648,0.1367903,0.0,0.0054128184,0.026255226,-0.015413064,0.016887233,-1.5294534,0.020032808,-0.32580173,-0.3030101,1.2886,-0.021396443,-2.9331915,0.2715371,131.77486,0.10338384,0.29241723,0.44495872,0.13762437,0.105849266,inf,inf,inf,inf,1,1,1,1,2,0,2,1,6,1,1,1
495246015,15154129,-33.9385715,18.8741563,-1.8200521,1.5104052,-0.056118,-0.23954648,0.1367903,0.0,0.0025847675,0.025482079,-0.01600884,0.016262282,-1.5294534,0.020032808,-0.32580173,-0.24760924,0.8019671,-0.13116765,-2.9340878,0.2715371,131.77486,0.103225105,0.29324567,0.44560963,0.13813335,0.10602506,inf,inf,inf,inf,1,1,1,1,2,0,2,1,6,1,1,1
495256019,15154129,-33.9385715,18.8741563,-1.8200645,1.5102103,-0.05600846,-0.23954648,0.1367903,0.0,0.0006822355,0.02560027,-0.015823808,0.016369276,-1.5294534,0.020032808,-0.32580173,-0.19547059,0.6324992,-0.12830676,-2.9349499,0.2715371,131.77486,0.102189906,0.29407957,0.44267872,0.13864428,0.105877765,inf,inf,inf,inf,1,1,1,1,2,0,2,1,6,1,1,1
495266024,15154129,-33.9385715,18.8741563,-1.8200896,1.5100384,-0.055910736,-0.23954648,0.1367903,0.0,0.00034660572,0.024962619,-0.015403814,0.016701987,-1.5294534,0.020032808,-0.32580173,0.022166274,0.20178448,0.09068251,-2.9356487,0.2715371,131.77486,0.10208079,0.29491907,0.44332844,0.13916071,0.106054,inf,inf,inf,inf,1,1,1,1,2,0,2,1,6,1,1,1
495276060,15154129,-33.9385715,18.8741563,-1.8201134,1.5098875,-0.05581904,-0.23954648,0.1367903,0.0,0.00078177475,0.022995824,-0.0148542905,0.01715491,-1.5294534,0.020032808,-0.32580173,0.070152305,-0.67314494,0.11850417,-2.9360762,0.2715371,131.77486,0.10195194,0.2957641,0.44398022,0.13967931,0.10623015,inf,inf,inf,inf,1,1,1,1,2,0,2,1,6,1,1,1
495286039,15154129,-33.9385715,18.8741563,-1.8201289,1.5097549,-0.055724215,-0.23954648,0.1367903,0.0,0.0017004933,0.022662353,-0.0138603235,0.01804391,-1.5294534,0.020032808,-0.32580173,0.06446775,-1.1539061,0.010452686,-2.936161,0.2715371,131.77486,0.10181177,0.29661474,0.44463408,0.1402024,0.10640672,inf,inf,inf,inf,1,1,1,1,2,0,2,1,6,1,1,1
495296036,15154129,-33.9385715,18.8741563,-1.8201355,1.5096368,-0.055629887,-0.23954648,0.1367903,0.0,0.0021366703,0.022673465,-0.012799661,0.018991137,-1.5294534,0.020032808,-0.32580173,-0.068601884,-1.161822,0.065134,-2.9358215,0.2715371,131.77486,0.101644166,0.297471,0.44529,0.14072107,0.10658275,inf,inf,inf,inf,1,1,1,1,2,0,2,1,6,1,1,1
495306039,15154129,-33.9385715,18.8741563,-1.8201388,1.5095211,-0.05554259,-0.23954648,0.1367903,0.0,0.0032962407,0.022772897,-0.012649276,0.019020546,-1.5294534,0.020032808,-0.32580173,0.19044024,-0.6692637,0.15166336,-2.9350505,0.2715371,131.77486,0.10149029,0.2983329,0.445948,0.1412343,0.10675874,inf,inf,inf,inf,1,1,1,1,2,0,2,1,6,1,1,1
495316044,15154129,-33.9385715,18.8741563,-1.8201329,1.5094113,-0.05546217,-0.23954648,0.1367903,0.0,0.004119568,0.023472076,-0.0129664745,0.018575203,-1.5294534,0.020032808,-0.32580173,0.18633988,-0.15764105,0.0127661945,-2.9338465,0.2715371,131.77486,0.101341754,0.29920048,0.44660804,0.1417525,0.10693496,inf,inf,inf,inf,1,1,1,1,2,0,2,1,6,1,1,1
495326054,15154129,-33.9385715,18.8741563,-1.8201092,1.5093096,-0.05538815,-0.23954648,0.1367903,0.0,0.006323679,0.024955543,-0.013107908,0.018298155,-1.5294534,0.020032808,-0.32580173,0.23295511,0.5323838,-0.14973925,-2.9324067,0.2715371,131.77486,0.10116562,0.30007365,0.44727015,0.14228418,0.10711177,inf,inf,inf,inf,1,1,1,1,2,0,2,1,6,1,1,1
495336052,15154129,-33.9385715,18.8741563,-1.820057,1.5092243,-0.055318978,-0.23954648,0.1367903,0.0,0.010426443,0.02738038,-0.011736876,0.01952715,-1.5294534,0.020032808,-0.32580173,0.5339323,1.2860017,0.14818865,-2.9309793,0.2715371,131.77486,0.10099318,0.3009526,0.44793436,0.14280073,0.107287824,inf,inf,inf,inf,1,1,1,1,2,0,2,1,6,1,1,1
495346060,15154129,-33.9385715,18.8741563,-1.819969,1.5091636,-0.055425067,-0.23954648,0.1367903,0.0,0.01399318,0.028706525,-0.011420133,0.01951645,-1.5294534,0.020032808,-0.32580173,0.58535236,1.4293953,-0.0070341593,-2.9297774,0.2715371,131.77486,0.1,0.3018372,0.44496062,0.1433141,0.10712789,inf,inf,inf,inf,1,1,1,1,2,0,2,1,6,1,1,1
495356063,15154129,-33.9385715,18.8741563,-1.8198458,1.509124,-0.05552814,-0.23954648,0.1367903,0.0,0.016768478,0.027976079,-0.0113151325,0.019296173,-1.5294534,0.020032808,-0.32580173,0.35610548,0.9494818,-0.09909069,-2.9288712,0.2715371,131.77486,0.1,0.30272758,0.44562355,0.14384796,0.10730507,inf,inf,inf,inf,1,1,1,1,2,0,2,1,6,1,1,1
495366098,15154129,-33.9385715,18.8741563,-1.8196812,1.5090955,-0.055627882,-0.23954648,0.1367903,0.0,0.0205963,0.025998423,-0.0105446875,0.019742962,-1.5294534,0.020032808,-0.32580173,0.14930479,0.26606908,-0.06371787,-2.9281042,0.2715371,131.77486,0.1,0.30362368,0.44628856,0.14435983,0.1074807,inf,inf,inf,inf,1,1,1,1,2,0,2,1,6,1,1,1
495376081,15154129,-33.9385715,18.8741563,-1.8194861,1.5090588,-0.055720005,-0.23954648,0.1367903,0.0,0.024022328,0.021688433,-0.008754094,0.021212157,-1.5294534,0.020032808,-0.32580173,0.3017757,-0.5367994,0.23306943,-2.9272714,0.2715371,131.77486,0.1,0.30452558,0.44695568,0.14488703,0.10765735,inf,inf,inf,inf,1,1,1,1,2,0,2,1,6,1,1,1
495386078,15154129,-33.9385715,18.8741563,-1.8192666,1.5090017,-0.055801652,-0.23954648,0.1367903,0.0,0.025859468,0.016945291,-0.0077843103,0.02186223,-1.5294534,0.020032808,-0.32580173,0.22598371,-1.172226,0.22573619,-2.9263499,0.2715371,131.77486,0.1,0.30543318,0.44762483,0.14541048,0.107833594,inf,inf,inf,inf,1,1,1,1,2,0,2,1,6,1,1,1
495396076,15154129,-33.9385715,18.8741563,-1.8190284,1.508923,-0.055874072,-0.23954648,0.1367903,0.0,0.026861899,0.012566938,-0.007075683,0.022253478,-1.5294534,0.020032808,-0.32580173,-0.032237023,-1.6568357,0.13380933,-2.9255433,0.2715371,131.77486,0.1,0.30634668,0.44829616,0.1459336,0.10800995,inf,inf,inf,inf,1,1,1,1,2,0,2,1,6,1,1,1
495406081,15154129,-33.9385715,18.8741563,-1.8187807,1.5088217,-0.055944268,-0.23954648,0.1367903,0.0,0.027424026,0.009732381,-0.0072815767,0.021731744,-1.5294534,0.020032808,-0.32580173,-0.1381869,-1.6347356,-0.0059875855,-2.925009,0.2715371,131.77486,0.1,0.30726594,0.4489695,0.14646162,0.10818636,inf,inf,inf,inf,1,1,1,1,2,0,2,1,6,1,1,1
495416085,15154129,-33.9385715,18.8741563,-1.8184843,1.5086261,-0.05603335,-0.23954648,0.1367903,0.0,0.02838415,0.007899823,-0.0074696657,0.021216288,-1.5294534,0.020032808,-0.32580173,0.14373398,-1.0497197,0.09954692,-2.9248638,0.2715371,131.77486,0.1,0.29090437,0.44481218,0.13708743,0.10535095,inf,inf,inf,inf,1,1,1,1,2,0,2,1,6,1,1,1
495426088,15154129,-33.9385715,18.8741563,-1.8181894,1.5084046,-0.05612096,-0.23954648,0.1367903,0.0,0.027892767,0.0056302454,-0.007100794,0.02126084,-1.5294534,0.020032808,-0.32580173,0.0752697,-0.37852347,0.114504404,-2.9250648,0.2715371,131.77486,0.1,0.29172435,0.4454596,0.13759296,0.10552568,inf,inf,inf,inf,1,1,1,1,2,0,2,1,6,1,1,1
495436093,15154129,-33.9385715,18.8741563,-1.8178983,1.5081491,-0.05629137,-0.23954648,0.1367903,0.0,0.027395835,0.0021910556,-0.005672123,0.022271683,-1.5294534,0.020032808,-0.32580173,-0.032549016,0.15069304,0.065912075,-2.9254303,0.2715371,131.77486,0.1,0.29254976,0.44252884,0.1380973,0.10537958,inf,inf,inf,inf,1,1,1,1,2,0,2,1,6,1,1,1
495446096,15154129,-33.9385715,18.8741563,-1.8176068,1.5078493,-0.056433327,-0.23954648,0.1367903,0.0,0.028125446,-0.0028114126,-0.0028732328,0.024659999,-1.5294534,0.020032808,-0.32580173,0.055733103,0.5051125,0.033853013,-2.9256935,0.2715371,131.77486,0.1,0.29338077,0.4431751,0.13860302,0.10555455,inf,inf,inf,inf,1,1,1,1,2,0,2,1,6,1,1,1
495456100,15154129,-33.9385715,18.8741563,-1.8173163,1.5074943,-0.056547612,-0.23954648,0.1367903,0.0,0.028431471,-0.009123418,-0.0009416769,0.026187934,-1.5294534,0.020032808,-0.32580173,0.19690374,0.6997672,-0.10939135,-2.9256954,0.2715371,131.77486,0.1,0.29421723,0.4438234,0.13910499,0.105729125,inf,inf,inf,inf,1,1,1,1,2,0,2,1,6,1,1,1
495466104,15154129,-33.9385715,18.8741563,-1.8170229,1.5070804,-0.05664258,-0.23954648,0.1367903,0.0,0.028625248,-0.017202454,0.0010583734,0.027791383,-1.5294534,0.020032808,-0.32580173,0.111881875,0.3757759,0.020986943,-2.925283,0.2715371,131.77486,0.1,0.29505935,0.44447368,0.13960879,0.105904005,inf,inf,inf,inf,1,1,1,1,2,0,2,1,6,1,1,1
495476109,15154129,-33.9385715,18.8741563,-1.8167338,1.5066003,-0.05672734,-0.23954648,0.1367903,0.0,0.027417924,-0.026697364,0.0013808467,0.027723545,-1.5294534,0.020032808,-0.32580173,-0.103885315,-0.276815,0.002422054,-2.9244127,0.2715371,131.77486,0.1,0.29590696,0.44512606,0.14011697,0.106079035,inf,inf,inf,inf,1,1,1,1,2,0,2,1,6,1,1,1
495486112,15154129,-33.9385715,18.8741563,-1.8164585,1.5060663,-0.056804787,-0.23954648,0.1367903,0.0,0.025783015,-0.034324743,0.0023046122,0.028263733,-1.5294534,0.020032808,-0.32580173,-0.2156272,-0.97339,0.124749325,-2.9232106,0.2715371,131.77486,0.1,0.29676023,0.4457805,0.1406286,0.106254466,inf,inf,inf,inf,1,1,1,1,2,0,2,1,6,1,1,1
495496117,15154129,-33.9385715,18.8741563,-1.8162005,1.5054945,-0.056867063,-0.23954648,0.1367903,0.0,0.023739666,-0.03952768,0.0045712776,0.030152818,-1.5294534,0.020032808,-0.32580173,-0.34123212,-1.4057131,0.3642634,-2.9219303,0.2715371,131.77486,0.1,0.29761907,0.4464369,0.14113979,0.10642976,inf,inf,inf,inf,1,1,1,1,2,0,2,1,6,1,1,1
495506120,15154129,-33.9385715,18.8741563,-1.8159652,1.5049008,-0.05691301,-0.23954648,0.1367903,0.0,0.021821465,-0.04247112,0.006234619,0.031445067,-1.5294534,0.020032808,-0.32580173,-0.252392,-1.5141809,0.53349406,-2.9208562,0.2715371,131.77486,0.1,0.29848364,0.44709545,0.1416444,0.106604956,inf,inf,inf,inf,1,1,1,1,2,0,2,1,6,1,1,1
495516125,15154129,-33.9385715,18.8741563,-1.8157512,1.5042992,-0.057081804,-0.23954648,0.1367903,0.0,0.01962834,-0.043454885,0.0063025285,0.03101257,-1.5294534,0.020032808,-0.32580173,-0.27470154,-1.3683515,0.3598336,-2.9199479,0.2715371,131.77486,0.1,0.29935387,0.44413635,0.1421548,0.10644971,inf,inf,inf,inf,1,1,1,1,2,0,2,1,6,1,1,1
495526129,15154129,-33.9385715,18.8741563,-1.8155576,1.5036988,-0.057229485,-0.23954648,0.1367903,0.0,0.017642878,-0.04215363,0.0076608146,0.03188204,-1.5294534,0.020032808,-0.32580173,-0.30734447,-0.7711661,0.18001907,-2.9191985,0.2715371,131.77486,0.1,0.30022967,0.4447936,0.14266652,0.10662513,inf,inf,inf,inf,1,1,1,1,2,0,2,1,6,1,1,1
495536133,15154129,-33.9385715,18.8741563,-1.8153805,1.50311,-0.057351515,-0.23954648,0.1367903,0.0,0.017317148,-0.038659703,0.010043346,0.033787612,-1.5294534,0.020032808,-0.32580173,0.0070004826,0.30587044,0.26594916,-2.9184904,0.2715371,131.77486,0.1,0.30111128,0.44545296,0.14317726,0.10680075,inf,inf,inf,inf,1,1,1,1,2,0,2,1,6,1,1,1
495546140,15154129,-33.9385715,18.8741563,-1.8152081,1.5025384,-0.05743796,-0.23954648,0.1367903,0.0,0.017535172,-0.036547747,0.013688982,0.03696759,-1.5294534,0.020032808,-0.32580173,0.20221998,0.90346646,0.426039,-2.9175982,0.2715371,131.77486,0.1,0.30199853,0.44611436,0.14368176,0.10697575,inf,inf,inf,inf,1,1,1,1,2,0,2,1,6,1,1,1
495556141,15154129,-33.9385715,18.8741563,-1.8150358,1.5019825,-0.057474874,-0.23954648,0.1367903,0.0,0.01726998,-0.035047825,0.017166395,0.03999061,-1.5294534,0.020032808,-0.32580173,0.11756631,1.2447776,0.104564995,-2.9162908,0.2715371,131.77486,0.1,0.30289155,0.44677782,0.1441921,0.10715122,inf,inf,inf,inf,1,1,1,1,2,0,2,1,6,1,1,1
495566150,15154129,-33.9385715,18.8741563,-1.8148594,1.5014397,-0.057469003,-0.23954648,0.1367903,0.0,0.017974198,-0.03414304,0.020393966,0.042774133,-1.5294534,0.020032808,-0.32580173,0.107856736,1.3574761,-0.06272158,-2.914427,0.2715371,131.77486,0.1,0.30379024,0.44744334,0.14470457,0.10732654,inf,inf,inf,inf,1,1,1,1,2,0,2,1,6,1,1,1
495576149,15154129,-33.9385715,18.8741563,-1.8146733,1.5009078,-0.057429865,-0.23954648,0.1367903,0.0,0.019129107,-0.03449787,0.023526393,0.045473184,-1.5294534,0.020032808,-0.32580173,0.101788536,1.1678593,0.09408904,-2.9119852,0.2715371,131.77486,0.1,0.3046948,0.44811094,0.14522277,0.10750237,inf,inf,inf,inf,1,1,1,1,2,0,2,1,6,1,1,1
495586153,15154129,-33.9385715,18.8741563,-1.8144795,1.5003886,-0.05736526,-0.23954648,0.1367903,0.0,0.01995475,-0.03577287,0.025459785,0.04698356,-1.5294534,0.020032808,-0.32580173,0.1377571,0.48948532,0.20169497,-2.9090593,0.2715371,131.77486,0.1,0.30560508,0.4487806,0.14574137,0.107677996,inf,inf,inf,inf,1,1,1,1,2,0,2,1,6,1,1,1
495596195,15154129,-33.9385715,18.8741563,-1.8142723,1.4998876,-0.057270825,-0.23954648,0.1367903,0.0,0.021194983,-0.036488336,0.02788777,0.048998624,-1.5294534,0.020032808,-0.32580173,0.07031622,-0.34591296,0.19025208,-2.9058297,0.2715371,131.77486,0.1,0.30652124,0.44945237,0.146259,0.10785367,inf,inf,inf,inf,1,1,1,1,2,0,2,1,6,1,1,1
495606161,15154129,-33.9385715,18.8741563,-1.8140521,1.4994121,-0.05726435,-0.23954648,0.1367903,0.0,0.022461426,-0.03572104,0.03007328,0.050669376,-1.5294534,0.020032808,-0.32580173,-0.028173743,-0.8030285,0.31535947,-2.902612,0.2715371,131.77486,0.1,0.30744323,0.44644925,0.14677265,0.10768527,inf,inf,inf,inf,1,1,1,1,2,0,2,1,6,1,1,1
495616166,15154129,-33.9385715,18.8741563,-1.8133457,1.4989185,-0.05730853,-0.23954648,0.1367903,0.0,0.024616383,-0.034658838,0.031090235,0.051111355,-1.5294534,0.020032808,-0.32580173,0.107170545,-1.1507328,0.3757448,-2.8995967,0.2715371,131.77486,0.1,0.29108232,0.44238368,0.13733427,0.104888715,inf,inf,inf,inf,1,1,1,1,2,0,2,1,6,1,1,1
495626170,15154129,-33.9385715,18.8741563,-1.8126339,1.4984432,-0.05734201,-0.23954648,0.1367903,0.0,0.026870338,-0.03377074,0.03027109,0.049734548,-1.5294534,0.020032808,-0.32580173,0.22275129,-1.1290095,0.226386,-2.8968146,0.2715371,131.77486,0.1,0.29190448,0.44302648,0.13782854,0.105062455,inf,inf,inf,inf,1,1,1,1,2,0,2,1,6,1,1,1
495636174,15154129,-33.9385715,18.8741563,-1.811913,1.4979899,-0.05737087,-0.23954648,0.1367903,0.0,0.029176742,-0.030342547,0.02887666,0.04779906,-1.5294534,0.020032808,-0.32580173,0.22544119,-0.5314182,-0.050224945,-2.8944273,0.2715371,131.77486,0.1,0.29273203,0.4436713,0.13832316,0.105236,inf,inf,inf,inf,1,1,1,1,2,0,2,1,6,1,1,1
495646183,15154129,-33.9385715,18.8741563,-1.8111755,1.4975626,-0.057394285,-0.23954648,0.1367903,0.0,0.032028787,-0.026393125,0.028681442,0.04707904,-1.5294534,0.020032808,-0.32580173,0.11775205,0.27494383,-0.054253668,-2.892543,0.2715371,131.77486,0.1,0.29356518,0.44431812,0.1388265,0.1054102,inf,inf,inf,inf,1,1,1,1,2,0,2,1,6,1,1,1
495656182,15154129,-33.9385715,18.8741563,-1.8104283,1.4971611,-0.057407923,-0.23954648,0.1367903,0.0,0.034615945,-0.022406412,0.028852647,0.04674098,-1.5294534,0.020032808,-0.32580173,0.2697573,1.115296,-0.038047567,-2.8912606,0.2715371,131.77486,0.1,0.29440385,0.44496694,0.13932812,0.10558405,inf,inf,inf,inf,1,1,1,1,2,0,2,1,6,1,1,1
495666194,15154129,-33.9385715,18.8741563,-1.8096758,1.4967923,-0.057411365,-0.23954648,0.1367903,0.0,0.03591177,-0.018907137,0.027694294,0.045088638,-1.5294534,0.020032808,-0.32580173,0.22422782,1.5004355,-0.3749871,-2.8906643,0.2715371,131.77486,0.1,0.29524815,0.44561782,0.13982534,0.10575778,inf,inf,inf,inf,1,1,1,1,2,0,2,1,6,1,1,1
495676190,15154129,-33.9385715,18.8741563,-1.8089229,1.4964556,-0.057415262,-0.23954648,0.1367903,0.0,0.036461327,-0.01626352,0.02615875,0.043073174,-1.5294534,0.020032808,-0.32580173,0.0015246862,1.5636548,-0.5967795,-2.8907528,0.2715371,131.77486,0.1,0.29609793,0.4462707,0.14032555,0.10593147,inf,inf,inf,inf,1,1,1,1,2,0,2,1,6,1,1,1
495686194,15154129,-33.9385715,18.8741563,-1.8081737,1.4961548,-0.05742715,-0.23954648,0.1367903,0.0,0.037131052,-0.013806818,0.025039092,0.04148799,-1.5294534,0.020032808,-0.32580173,-0.03972934,1.3461457,-0.3901138,-2.8915305,0.2715371,131.77486,0.1,0.2969534,0.44692564,0.14083363,0.10610584,inf,inf,inf,inf,1,1,1,1,2,0,2,1,6,1,1,1
495696198,15154129,-33.9385715,18.8741563,-1.8074408,1.4958956,-0.057642486,-0.23954648,0.1367903,0.0,0.036869746,-0.012127508,0.023269085,0.039074454,-1.5294534,0.020032808,-0.32580173,0.16201264,0.66450804,-0.14584512,-2.8929703,0.2715371,131.77486,0.1,0.29781455,0.4439671,0.1413368,0.10595144,inf,inf,inf,inf,1,1,1,1,2,0,2,1,6,1,1,1
495706202,15154129,-33.9385715,18.8741563,-1.8067293,1.4956785,-0.05786322,-0.23954648,0.1367903,0.0,0.034306396,-0.011009757,0.021492913,0.03667625,-1.5294534,0.020032808,-0.32580173,-0.18946967,-0.28444403,-0.06269093,-2.8949318,0.2715371,131.77486,0.1,0.29868126,0.4446208,0.14183548,0.106125176,inf,inf,inf,inf,1,1,1,1,2,0,2,1,6,1,1,1
495716206,15154129,-33.9385715,18.8741563,-1.8060427,1.4954965,-0.058085527,-0.23954648,0.1367903,0.0,0.032199435,-0.009945075,0.020090528,0.03467314,-1.5294534,0.020032808,-0.32580173,-0.4825998,-0.9709285,-0.022532236,-2.8972912,0.2715371,131.77486,0.1,0.29955366,0.4452765,0.14232968,0.10629892,inf,inf,inf,inf,1,1,1,1,2,0,2,1,6,1,1,1
495726210,15154129,-33.9385715,18.8741563,-1.8053869,1.4953349,-0.05831888,-0.23954648,0.1367903,0.0,0.030755432,-0.00947349,0.018187867,0.032189947,-1.5294534,0.020032808,-0.32580173,-0.27007666,-1.2685657,0.23683797,-2.8997104,0.2715371,131.77486,0.1,0.30043167,0.44593427,0.14282502,0.10647253,inf,inf,inf,inf,1,1,1,1,2,0,2,1,6,1,1,1
495736216,15154129,-33.9385715,18.8741563,-1.8047637,1.4951805,-0.058559727,-0.23954648,0.1367903,0.0,0.028511709,-0.009351276,0.016190408,0.029631918,-1.5294534,0.020032808,-0.32580173,-0.15541708,-1.1905589,0.26758614,-2.9018786,0.2715371,131.77486,0.1,0.3013154,0.44659406,0.1433224,0.10664658,inf,inf,inf,inf,1,1,1,1,2,0,2,1,6,1,1,1
495746222,15154129,-33.9385715,18.8741563,-1.804171,1.4950287,-0.05880661,-0.23954648,0.1367903,0.0,0.025369346,-0.008676462,0.012903623,0.025803825,-1.5294534,0.020032808,-0.32580173,-0.4540122,-0.80767816,-0.17133676,-2.9035532,0.2715371,131.77486,0.1,0.3022048,0.4472559,0.1438201,0.1068205,inf,inf,inf,inf,1,1,1,1,2,0,2,1,6,1,1,1
495756227,15154129,-33.9385715,18.8741563,-1.8036109,1.4948728,-0.059063632,-0.23954648,0.1367903,0.0,0.02284796,-0.0075819604,0.010431071,0.022808664,-1.5294534,0.020032808,-0.32580173,-0.55683994,-0.0020404768,-0.33702505,-2.904599,0.2715371,131.77486,0.1,0.3030999,0.44791982,0.14432432,0.10699505,inf,inf,inf,inf,1,1,1,1,2,0,2,1,6,1,1,1
495766233,15154129,-33.9385715,18.8741563,-1.8030922,1.4947087,-0.059332073,-0.23954648,0.1367903,0.0,0.020373581,-0.006871326,0.008247458,0.020119764,-1.5294534,0.020032808,-0.32580173,-0.2258717,0.8163419,-0.32776627,-2.9048042,0.2715371,131.77486,0.1,0.3040007,0.44858575,0.14482842,0.10716942,inf,inf,inf,inf,1,1,1,1,2,0,2,1,6,1,1,1
495776231,15154129,-33.9385715,18.8741563,-1.8026166,1.4945362,-0.059729878,-0.23954648,0.1367903,0.0,0.016598301,-0.007523423,0.0053034057,0.01656808,-1.5294534,0.020032808,-0.32580173,-0.2080106,1.1973518,-0.5299391,-2.9040325,0.2715371,131.77486,0.1,0.30490732,0.44559795,0.14533122,0.10700521,inf,inf,inf,inf,1,1,1,1,2,0,2,1,6,1,1,1
495786235,15154129,-33.9385715,18.8741563,-1.8021787,1.4943601,-0.060131207,-0.23954648,0.1367903,0.0,0.013279308,-0.0086138565,0.0032979376,0.013977232,-1.5294534,0.020032808,-0.32580173,-0.3651267,1.0978615,-0.6572622,-2.9023223,0.2715371,131.77486,0.1,0.30581972,0.4462626,0.14584127,0.10718026,inf,inf,inf,inf,1,1,1,1,2,0,2,1,6,1,1,1
495796239,15154129,-33.9385715,18.8741563,-1.8017758,1.4941862,-0.060532935,-0.23954648,0.1367903,0.0,0.011374113,-0.009134046,0.0021469267,0.012262223,-1.5294534,0.020032808,-0.32580173,-0.16328447,0.88668257,-0.5863786,-2.899769,0.2715371,131.77486,0.1,0.30673787,0.44692925,0.14635992,0.1073556,inf,inf,inf,inf,1,1,1,1,2,0,2,1,6,1,1,1
495806303,15154129,-33.9385715,18.8741563,-1.8014016,1.4940215,-0.06093651,-0.23954648,0.1367903,0.0,0.010199787,-0.009605305,0.0019978539,0.011569965,-1.5294534,0.020032808,-0.32580173,0.17962962,0.44360486,-0.08874402,-2.8966146,0.2715371,131.77486,0.1,0.30766192,0.44759804,0.14688216,0.10753137,inf,inf,inf,inf,1,1,1,1,2,0,2,1,6,1,1,1
495816303,15154129,-33.9385715,18.8741563,-1.8009607,1.4939557,-0.061290484,-0.23954648,0.1367903,0.0,0.00759535,-0.010797005,0.0013830776,0.010476768,-1.5294534,0.020032808,-0.32580173,-0.103704095,-0.33601806,-0.0011403589,-2.8930173,0.2715371,131.77486,0.1,0.29127485,0.44351366,0.13743062,0.10474738,inf,inf,inf,inf,1,1,1,1,2,0,2,1,6,1,1,1
495826283,15154129,-33.9385715,18.8741563,-1.8005449,1.4939059,-0.061640322,-0.23954648,0.1367903,0.0,0.005473355,-0.010655408,0.0008435303,0.009476295,-1.5294534,0.020032808,-0.32580173,-0.38438183,-0.9264052,0.08748682,-2.8890696,0.2715371,131.77486,0.1,0.29209885,0.44415697,0.13792875,0.10492112,inf,inf,inf,inf,1,1,1,1,2,0,2,1,6,1,1,1
495836262,15154129,-33.9385715,18.8741563,-1.8001516,1.4938794,-0.061985686,-0.23954648,0.1367903,0.0,0.00525648,-0.00835406,0.0010052188,0.0091938395,-1.5294534,0.020032808,-0.32580173,-0.13747546,-1.0298206,0.35346317,-2.8849902,0.2715371,131.77486,0.1,0.29292834,0.44480228,0.13843408,0.10509494,inf,inf,inf,inf,1,1,1,1,2,0,2,1,6,1,1,1
495846259,15154129,-33.9385715,18.8741563,-1.7997787,1.4938797,-0.062322643,-0.23954648,0.1367903,0.0,0.0039358526,-0.004815167,0.0014140895,0.009174929,-1.5294534,0.020032808,-0.32580173,-0.104463145,-0.67624354,0.5869161,-2.8810794,0.2715371,131.77486,0.1,0.29376343,0.44544962,0.13894154,0.105269015,inf,inf,inf,inf,1,1,1,1,2,0,2,1,6,1,1,1
495856263,15154129,-33.9385715,18.8741563,-1.7994238,1.4939159,-0.062644824,-0.23954648,0.1367903,0.0,0.0023649721,-0.0004187476,0.00060926966,0.007957905,-1.5294534,0.020032808,-0.32580173,-0.34809953,-0.3215469,0.21031854,-2.8775055,0.2715371,131.77486,0.1,0.29460406,0.44609892,0.13944821,0.10544275,inf,inf,inf,inf,1,1,1,1,2,0,2,1,6,1,1,1
495866267,15154129,-33.9385715,18.8741563,-1.7990851,1.4939847,-0.06314946,-0.23954648,0.1367903,0.0,0.001302823,0.0041872426,0.0012337622,0.007984102,-1.5294534,0.020032808,-0.32580173,-0.5169037,0.29153126,0.07024778,-2.8743854,0.2715371,131.77486,0.1,0.2954504,0.44315478,0.13995874,0.1052931,inf,inf,inf,inf,1,1,1,1,2,0,2,1,6,1,1,1
495876274,15154129,-33.9385715,18.8741563,-1.7987785,1.4940789,-0.063628234,-0.23954648,0.1367903,0.0,-0.0005500742,0.00860529,0.0015494785,0.0077252025,-1.5294534,0.020032808,-0.32580173,-0.2387379,1.1187807,-0.11815554,-2.8717985,0.2715371,131.77486,0.1,0.29630235,0.4438029,0.1404708,0.10546714,inf,inf,inf,inf,1,1,1,1,2,0,2,1,6,1,1,1
495886275,15154129,-33.9385715,18.8741563,-1.7985077,1.4941957,-0.064089455,-0.23954648,0.1367903,0.0,-0.0031304492,0.0113562755,0.0008320116,0.0064556934,-1.5294534,0.020032808,-0.32580173,-0.11358074,1.4950061,-0.34937465,-2.8697686,0.2715371,131.77486,0.1,0.29715988,0.44445306,0.14098181,0.105640866,inf,inf,inf,inf,1,1,1,1,2,0,2,1,6,1,1,1
495896279,15154129,-33.9385715,18.8741563,-1.7982646,1.494331,-0.0645359,-0.23954648,0.1367903,0.0,-0.0053896983,0.011847037,0.0005835643,0.0056773075,-1.5294534,0.020032808,-0.32580173,-0.27256984,1.1972737,-0.43045968,-2.868382,0.2715371,131.77486,0.1,0.2980232,0.44510522,0.14149572,0.10581501,inf,inf,inf,inf,1,1,1,1,2,0,2,1,6,1,1,1
495906283,15154129,-33.9385715,18.8741563,-1.7980461,1.4944793,-0.06495993,-0.23954648,0.1367903,0.0,-0.0056190644,0.012411297,0.0016946769,0.0062790564,-1.5294534,0.020032808,-0.32580173,0.104408935,0.8848194,-0.4105083,-2.8676028,0.2715371,131.77486,0.1,0.29889214,0.44575945,0.142011,0.10598892,inf,inf,inf,inf,1,1,1,1,2,0,2,1,6,1,1,1
495916287,15154129,-33.9385715,18.8741563,-1.7978349,1.4946402,-0.06536238,-0.23954648,0.1367903,0.0,-0.004530963,0.012049215,0.003427114,0.0075227846,-1.5294534,0.020032808,-0.32580173,0.3794207,0.36820063,-0.04079656,-2.867374,0.2715371,131.77486,0.1,0.29976687,0.4464157,0.14253317,0.10616342,inf,inf,inf,inf,1,1,1,1,2,0,2,1,6,1,1,1
495926291,15154129,-33.9385715,18.8741563,-1.79763,1.494803,-0.0657513,-0.23954648,0.1367903,0.0,-0.0051607788,0.009495749,0.0031450784,0.006771725,-1.5294534,0.020032808,-0.32580173,0.23894386,-0.45569295,0.069374174,-2.8675733,0.2715371,131.77486,0.1,0.30064732,0.44707397,0.14305228,0.10633753,inf,inf,inf,inf,1,1,1,1,2,0,2,1,6,1,1,1
495936295,15154129,-33.9385715,18.8741563,-1.7974249,1.4949609,-0.06613567,-0.23954648,0.1367903,0.0,-0.00484311,0.006950083,0.002182835,0.0053597176,-1.5294534,0.020032808,-0.32580173,-0.02488191,-1.1871678,0.12215309,-2.8680158,0.2715371,131.77486,0.1,0.30153358,0.4477343,0.14357121,0.10651188,inf,inf,inf,inf,1,1,1,1,2,0,2,1,6,1,1,1
495946300,15154129,-33.9385715,18.8741563,-1.797219,1.495109,-0.06651533,-0.23954648,0.1367903,0.0,-0.0037438183,0.005479182,0.0023249127,0.005070373,-1.5294534,0.020032808,-0.32580173,0.016698074,-1.3829528,0.3991428,-2.8685575,0.2715371,131.77486,0.1,0.3024256,0.44839665,0.14409398,0.10668619,inf,inf,inf,inf,1,1,1,1,2,0,2,1,6,1,1,1
495956304,15154129,-33.9385715,18.8741563,-1.797014,1.4952403,-0.06713638,-0.23954648,0.1367903,0.0,-0.0033419437,0.004143832,0.0030379102,0.005113423,-1.5294534,0.020032808,-0.32580173,0.0049356315,-1.1502532,0.64028126,-2.8690805,0.2715371,131.77486,0.1,0.30332348,0.44540992,0.1446138,0.10652429,inf,inf,inf,inf,1,1,1,1,2,0,2,1,6,1,1,1
495966308,15154129,-33.9385715,18.8741563,-1.7968088,1.4953514,-0.06772503,-0.23954648,0.1367903,0.0,-0.0034131552,0.0030554084,0.0038922897,0.0053265295,-1.5294534,0.020032808,-0.32580173,-0.2530704,-0.708879,0.5089584,-2.8694448,0.2715371,131.77486,0.1,0.30422717,0.44607097,0.14513028,0.1066987,inf,inf,inf,inf,1,1,1,1,2,0,2,1,6,1,1,1
495976312,15154129,-33.9385715,18.8741563,-1.7966113,1.4954373,-0.06827962,-0.23954648,0.1367903,0.0,-0.0043290304,0.00093605695,0.0038110898,0.004631328,-1.5294534,0.020032808,-0.32580173,-0.48083183,-0.3875661,0.018087758,-2.869535,0.2715371,131.77486,0.1,0.30513668,0.44673407,0.14564523,0.106872864,inf,inf,inf,inf,1,1,1,1,2,0,2,1,6,1,1,1
495986318,15154129,-33.9385715,18.8741563,-1.7964323,1.4954876,-0.06881192,-0.23954648,0.1367903,0.0,-0.0046472293,-0.0008691566,0.0033615325,0.0035944954,-1.5294534,0.020032808,-0.32580173,-0.18042034,0.32080907,-0.21345267,-2.8694036,0.2715371,131.77486,0.1,0.30605206,0.44739923,0.14616106,0.10704729,inf,inf,inf,inf,1,1,1,1,2,0,2,1,6,1,1,1
495996320,15154129,-33.9385715,18.8741563,-1.7962722,1.4955089,-0.06932492,-0.23954648,0.1367903,0.0,-0.006009263,-0.0023654893,0.003148174,0.0028191614,-1.5294534,0.020032808,-0.32580173,-0.123094685,0.8371444,-0.33486283,-2.869148,0.2715371,131.77486,0.1,0.30697322,0.44806644,0.14667615,0.107221484,inf,inf,inf,inf,1,1,1,1,2,0,2,1,6,1,1,1
496006324,15154129,-33.9385715,18.8741563,-1.796135,1.4955078,-0.06981484,-0.23954648,0.1367903,0.0,-0.0072696297,-0.0049718423,0.003639115,0.0027730465,-1.5294534,0.020032808,-0.32580173,0.028796686,0.80008316,-0.37213007,-2.8688693,0.2715371,131.77486,0.1,0.30790034,0.44873574,0.14718857,0.10739592,inf,inf,inf,inf,1,1,1,1,2,0,2,1,6,1,1,1
496016374,15154129,-33.9385715,18.8741563,-1.7966014,1.4957714,-0.07070209,-0.23954648,0.1367903,0.0,-0.00889696,-0.0069750063,0.0058737625,0.004047216,-1.5294534,0.020032808,-0.32580173,0.08600339,0.50332046,-0.29598922,-2.868596,0.2715371,131.77486,0.1,0.29150066,0.4446322,0.1376839,0.10462152,inf,inf,inf,inf,1,1,1,1,2,0,2,1,6,1,1,1
496026330,15154129,-33.9385715,18.8741563,-1.7970763,1.4960183,-0.071532056,-0.23954648,0.1367903,0.0,-0.011150362,-0.009267928,0.009273503,0.0065292437,-1.5294534,0.020032808,-0.32580173,0.046471808,0.012602101,-0.11124787,-2.8683972,0.2715371,131.77486,0.1,0.2923272,0.44527605,0.13818493,0.104794726,inf,inf,inf,inf,1,1,1,1,2,0,2,1,6,1,1,1
496036337,15154129,-33.9385715,18.8741563,-1.797568,1.4962444,-0.07259833,-0.23954648,0.1367903,0.0,-0.013832932,-0.012145082,0.011298761,0.0073928926,-1.5294534,0.020032808,-0.32580173,0.0582561,-0.5590983,0.23813024,-2.868316,0.2715371,131.77486,0.1,0.29315925,0.44234622,0.13868034,0.104648314,inf,inf,inf,inf,1,1,1,1,2,0,2,1,6,1,1,1
496046340,15154129,-33.9385715,18.8741563,-1.798079,1.4964404,-0.07361439,-0.23954648,0.1367903,0.0,-0.017542329,-0.016281439,0.012730578,0.0077155083,-1.5294534,0.020032808,-0.32580173,-0.14555065,-1.1048728,0.41230106,-2.8681436,0.2715371,131.77486,0.1,0.2939969,0.4429889,0.13917845,0.104821414,inf,inf,inf,inf,1,1,1,1,2,0,2,1,6,1,1,1
496056345,15154129,-33.9385715,18.8741563,-1.7986099,1.4965978,-0.07458715,-0.23954648,0.1367903,0.0,-0.020925198,-0.020170037,0.0131885465,0.0071148495,-1.5294534,0.020032808,-0.32580173,-0.353038,-1.3369774,0.45538038,-2.867721,0.2715371,131.77486,0.1,0.2948402,0.4436336,0.13968152,0.10499479,inf,inf,inf,inf,1,1,1,1,2,0,2,1,6,1,1,1
496066348,15154129,-33.9385715,18.8741563,-1.7991503,1.4967089,-0.07551869,-0.23954648,0.1367903,0.0,-0.02256896,-0.02375741,0.014502592,0.0074188816,-1.5294534,0.020032808,-0.32580173,-0.43325508,-1.1556768,0.67512363,-2.8669562,0.2715371,131.77486,0.1,0.29568902,0.44428024,0.14018293,0.10516786,inf,inf,inf,inf,1,1,1,1,2,0,2,1,6,1,1,1
496076352,15154129,-33.9385715,18.8741563,-1.7996936,1.4967752,-0.07640456,-0.23954648,0.1367903,0.0,-0.023067286,-0.025962103,0.015637238,0.0075905956,-1.5294534,0.020032808,-0.32580173,-0.28478977,-0.5872632,0.70194066,-2.8658469,0.2715371,131.77486,0.1,0.29654354,0.44492894,0.14067882,0.105340965,inf,inf,inf,inf,1,1,1,1,2,0,2,1,6,1,1,1
496086357,15154129,-33.9385715,18.8741563,-1.800229,1.4968165,-0.07724637,-0.23954648,0.1367903,0.0,-0.022781111,-0.025728635,0.0148629015,0.005898367,-1.5294534,0.020032808,-0.32580173,-0.21557322,0.02604595,0.15417555,-2.8645644,0.2715371,131.77486,0.1,0.2974036,0.44557968,0.141172,0.10551375,inf,inf,inf,inf,1,1,1,1,2,0,2,1,6,1,1,1
496926698,15154129,-33.9385715,18.8741563,-1.8100067,1.5034103,-0.12982275,-0.23954648,0.1367903,0.0,0.033023987,0.015244888,-0.059543706,-0.087861545,-1.5294534,0.020032808,-0.32580173,-0.0033243771,1.9070278,-0.057783492,-2.8308191,0.2715371,131.77486,0.1,0.30201587,0.44541386,0.14288238,0.10511335,inf,inf,inf,inf,1,1,1,1,2,0,2,1,6,1,1,1
496936703,15154129,-33.9385715,18.8741563,-1.8099002,1.5036404,-0.13091119,-0.23954648,0.1367903,0.0,0.032183856,0.018655501,-0.0586314,-0.08714948,-1.5294534,0.020032808,-0.32580173,-0.24974716,1.5528812,0.2514037,-2.8274803,0.2715371,131.77486,0.1,0.30291042,0.44606617,0.14337571,0.105285004,inf,inf,inf,inf,1,1,1,1,2,0,2,1,6,1,1,1
496946706,15154129,-33.9385715,18.8741563,-1.8097926,1.503916,-0.13197887,-0.23954648,0.1367903,0.0,0.033348892,0.021250315,-0.05725874,-0.08595669,-1.5294534,0.020032808,-0.32580173,0.19365014,0.79762137,0.64562565,-2.82427,0.2715371,131.77486,0.1,0.30381066,0.44672048,0.14386737,0.10545631,inf,inf,inf,inf,1,1,1,1,2,0,2,1,6,1,1,1
496956713,15154129,-33.9385715,18.8741563,-1.8096735,1.5042241,-0.13301882,-0.23954648,0.1367903,0.0,0.033912517,0.024155654,-0.057109114,-0.08596744,-1.5294534,0.020032808,-0.32580173,0.22919282,0.5830803,0.38848764,-2.8213286,0.2715371,131.77486,0.1,0.3047166,0.44737682,0.14436291,0.105628066,inf,inf,inf,inf,1,1,1,1,2,0,2,1,6,1,1,1
496966765,15154129,-33.9385715,18.8741563,-1.8095462,1.5045484,-0.13403572,-0.23954648,0.1367903,0.0,0.033337772,0.026361192,-0.056111228,-0.08511139,-1.5294534,0.020032808,-0.32580173,0.03815053,0.8722287,0.3268621,-2.8184614,0.2715371,131.77486,0.1,0.30562824,0.44803512,0.14485459,0.105799355,inf,inf,inf,inf,1,1,1,1,2,0,2,1,6,1,1,1
496976713,15154129,-33.9385715,18.8741563,-1.8094106,1.5048695,-0.13501139,-0.23954648,0.1367903,0.0,0.03380373,0.02547987,-0.053708702,-0.08283274,-1.5294534,0.020032808,-0.32580173,-0.15462638,0.844345,0.36618355,-2.8151348,0.2715371,131.77486,0.1,0.30654564,0.44869548,0.1453469,0.10597091,inf,inf,inf,inf,1,1,1,1,2,0,2,1,6,1,1,1
496986722,15154129,-33.9385715,18.8741563,-1.8092624,1.5052022,-0.13606335,-0.23954648,0.1367903,0.0,0.03506721,0.025134983,-0.050853025,-0.08019743,-1.5294534,0.020032808,-0.32580173,0.048073255,0.21310198,0.4797102,-2.8112788,0.2715371,131.77486,0.1,0.30746874,0.44569945,0.14584067,0.10580531,inf,inf,inf,inf,1,1,1,1,2,0,2,1,6,1,1,1
496996726,15154129,-33.9385715,18.8741563,-1.8091025,1.5055672,-0.13706826,-0.23954648,0.1367903,0.0,0.036251668,0.028225545,-0.04821085,-0.07775408,-1.5294534,0.020032808,-0.32580173,0.2528466,-0.19561121,0.41850507,-2.807592,0.2715371,131.77486,0.1,0.30839765,0.4463584,0.14632927,0.10597664,inf,inf,inf,inf,1,1,1,1,2,0,2,1,6,1,1,1
497006732,15154129,-33.9385715,18.8741563,-1.8089333,1.5059748,-0.13801958,-0.23954648,0.1367903,0.0,0.03658842,0.034511458,-0.0438126,-0.07353427,-1.5294534,0.020032808,-0.32580173,0.30720544,0.28198588,0.55000246,-2.8046803,0.2715371,131.77486,0.1,0.30933225,0.44701937,0.14682674,0.10614802,inf,inf,inf,inf,1,1,1,1,2,0,2,1,6,1,1,1
497016734,15154129,-33.9385715,18.8741563,-1.8090552,1.5064045,-0.13909888,-0.23954648,0.1367903,0.0,0.03614862,0.042050403,-0.038013794,-0.06809845,-1.5294534,0.020032808,-0.32580173,0.14023015,0.75198275,0.6355133,-2.8024263,0.2715371,131.77486,0.1,0.29281574,0.44303846,0.13734451,0.10347017,inf,inf,inf,inf,1,1,1,1,2,0,2,1,6,1,1,1
497026738,15154129,-33.9385715,18.8741563,-1.8091664,1.5068984,-0.14008346,-0.23954648,0.1367903,0.0,0.033922985,0.047182623,-0.03179849,-0.062218107,-1.5294534,0.020032808,-0.32580173,-0.4370251,0.5107073,0.18705522,-2.8008304,0.2715371,131.77486,0.1,0.29364976,0.44367495,0.13783965,0.10364101,inf,inf,inf,inf,1,1,1,1,2,0,2,1,6,1,1,1
497076763,15154129,-33.9385715,18.8741563,-1.8100965,1.5097011,-0.14412183,-0.23954648,0.1367903,0.0,0.008933704,0.044331096,-0.017578665,-0.049371894,-1.5294534,0.020032808,-0.32580173,-0.40770048,-0.22624299,-0.11000604,-2.800757,0.2715371,131.77486,0.1,0.2979033,0.44328788,0.14032862,0.104173094,inf,inf,inf,inf,1,1,1,1,2,0,2,1,6,1,1,1
497086763,15154129,-33.9385715,18.8741563,-1.8104445,1.5101632,-0.1448918,-0.23954648,0.1367903,0.0,0.0014865528,0.036945004,-0.017427737,-0.049484603,-1.5294534,0.020032808,-0.32580173,-0.38718575,-0.91361326,-0.2082754,-2.8010893,0.2715371,131.77486,0.1,0.2987708,0.4439309,0.14081697,0.104343854,inf,inf,inf,inf,1,1,1,1,2,0,2,1,6,1,1,1
497096768,15154129,-33.9385715,18.8741563,-1.810842,1.5105739,-0.14562708,-0.23954648,0.1367903,0.0,-0.0051450003,0.030490134,-0.016035885,-0.0483317,-1.5294534,0.020032808,-0.32580173,-0.6874658,-1.4727659,-0.33381164,-2.8015661,0.2715371,131.77486,0.1,0.29964387,0.4445759,0.14130366,0.104514204,inf,inf,inf,inf,1,1,1,1,2,0,2,1,6,1,1,1
497106770,15154129,-33.9385715,18.8741563,-1.8112683,1.5109288,-0.14632307,-0.23954648,0.1367903,0.0,-0.006934486,0.024126125,-0.011763623,-0.044274893,-1.5294534,0.020032808,-0.32580173,-0.31242284,-1.7700907,0.31940776,-2.8022697,0.2715371,131.77486,0.1,0.3005226,0.4452229,0.14178437,0.10468456,inf,inf,inf,inf,1,1,1,1,2,0,2,1,6,1,1,1
497116774,15154129,-33.9385715,18.8741563,-1.8117028,1.5112276,-0.14697406,-0.23954648,0.1367903,0.0,-0.007826929,0.019434525,-0.008869989,-0.04157415,-1.5294534,0.020032808,-0.32580173,-0.0049486742,-1.5598997,0.6031481,-2.8031282,0.2715371,131.77486,0.1,0.3014069,0.4458719,0.1422633,0.10485501,inf,inf,inf,inf,1,1,1,1,2,0,2,1,6,1,1,1
497126779,15154129,-33.9385715,18.8741563,-1.8121386,1.5114539,-0.1475805,-0.23954648,0.1367903,0.0,-0.009166662,0.013207437,-0.0067312485,-0.039606623,-1.5294534,0.020032808,-0.32580173,-0.033253923,-0.99657524,0.5093936,-2.803732,0.2715371,131.77486,0.1,0.30229676,0.4465228,0.14274816,0.10502541,inf,inf,inf,inf,1,1,1,1,2,0,2,1,6,1,1,1
497136783,15154129,-33.9385715,18.8741563,-1.8125755,1.511591,-0.14814633,-0.23954648,0.1367903,0.0,-0.010866867,0.007949143,-0.005945882,-0.038971633,-1.5294534,0.020032808,-0.32580173,-0.22976896,0.3734819,0.05828949,-2.803694,0.2715371,131.77486,0.1,0.30319232,0.44717574,0.14323224,0.10519604,inf,inf,inf,inf,1,1,1,1,2,0,2,1,6,1,1,1
497146787,15154129,-33.9385715,18.8741563,-1.813009,1.5116525,-0.14867117,-0.23954648,0.1367903,0.0,-0.010230453,-0.00023713234,-0.0030766267,-0.03623241,-1.5294534,0.020032808,-0.32580173,0.03608539,0.44483972,0.07212495,-2.803049,0.2715371,131.77486,0.1,0.30409348,0.44783065,0.14370637,0.10536599,inf,inf,inf,inf,1,1,1,1,2,0,2,1,6,1,1,1
497156793,15154129,-33.9385715,18.8741563,-1.8134189,1.5116537,-0.14913395,-0.23954648,0.1367903,0.0,-0.008107471,-0.007896641,0.0027154856,-0.030551225,-1.5294534,0.020032808,-0.32580173,0.16226742,-0.26756707,0.290361,-2.8020847,0.2715371,131.77486,0.1,0.3050003,0.44848755,0.14418165,0.10553638,inf,inf,inf,inf,1,1,1,1,2,0,2,1,6,1,1,1
497166796,15154129,-33.9385715,18.8741563,-1.8138125,1.5116271,-0.14965001,-0.23954648,0.1367903,0.0,-0.00679676,-0.012765401,0.00632506,-0.027143033,-1.5294534,0.020032808,-0.32580173,0.49162364,-1.4395571,0.43374258,-2.8011632,0.2715371,131.77486,0.1,0.3059127,0.44549322,0.14465874,0.10537204,inf,inf,inf,inf,1,1,1,1,2,0,2,1,6,1,1,1
497176834,15154129,-33.9385715,18.8741563,-1.8141786,1.5115775,-0.15012246,-0.23954648,0.1367903,0.0,-0.004131646,-0.013942051,0.00806943,-0.025577696,-1.5294534,0.020032808,-0.32580173,0.6690959,-1.3976064,0.35867575,-2.8003986,0.2715371,131.77486,0.1,0.3068308,0.44614872,0.14513014,0.10554212,inf,inf,inf,inf,1,1,1,1,2,0,2,1,6,1,1,1
497186806,15154129,-33.9385715,18.8741563,-1.8144997,1.5115108,-0.15056296,-0.23954648,0.1367903,0.0,-0.00415885,-0.01167284,0.006223582,-0.0275808,-1.5294534,0.020032808,-0.32580173,-0.50210184,-0.14466675,-0.5608926,-2.7996085,0.2715371,131.77486,0.1,0.30775452,0.4468062,0.1455963,0.105711535,inf,inf,inf,inf,1,1,1,1,2,0,2,1,6,1,1,1
497196834,15154129,-33.9385715,18.8741563,-1.8147881,1.5114453,-0.15098502,-0.23954648,0.1367903,0.0,0.0003981877,-0.011003022,0.0075420537,-0.026399016,-1.5294534,0.020032808,-0.32580173,-0.1295394,0.19915487,-0.36592507,-2.7988517,0.2715371,131.77486,0.1,0.30868387,0.4474657,0.14606147,0.105881095,inf,inf,inf,inf,1,1,1,1,2,0,2,1,6,1,1,1
497206820,15154129,-33.9385715,18.8741563,-1.8150259,1.511374,-0.15137379,-0.23954648,0.1367903,0.0,0.008202421,-0.011946256,0.012940736,-0.02111729,-1.5294534,0.020032808,-0.32580173,0.9720249,0.19154623,0.73703957,-2.7983408,0.2715371,131.77486,0.1,0.30961886,0.4481272,0.14651452,0.10605018,inf,inf,inf,inf,1,1,1,1,2,0,2,1,6,1,1,1
497216818,15154129,-33.9385715,18.8741563,-1.8151711,1.5114826,-0.15115936,-0.23954648,0.1367903,0.0,0.009221821,-0.012330175,0.012417791,-0.021150041,-1.5294534,0.020032808,-0.32580173,0.51102155,0.5171188,0.42527536,-2.7976422,0.2715371,131.77486,0.10648928,0.2930646,0.44412795,0.13704929,0.10337798,inf,inf,inf,inf,1,1,1,1,2,0,2,1,6,1,1,1
497226823,15154129,-33.9385715,18.8741563,-1.8152815,1.5115669,-0.15093116,-0.23954648,0.1367903,0.0,0.009367146,-0.015687918,0.011868893,-0.021216324,-1.5294534,0.020032808,-0.32580173,-0.43899408,0.18204913,-0.43070698,-2.796646,0.2715371,131.77486,0.106091596,0.29389897,0.44476494,0.13753186,0.10354734,inf,inf,inf,inf,1,1,1,1,2,0,2,1,6,1,1,1
497236824,15154129,-33.9385715,18.8741563,-1.8153611,1.5116214,-0.1507082,-0.23954648,0.1367903,0.0,0.015918639,-0.021178715,0.014796266,-0.01781366,-1.5294534,0.020032808,-0.32580173,0.56333,-0.82421434,0.49348232,-2.7958975,0.2715371,131.77486,0.10570165,0.2947388,0.44540387,0.13800234,0.10371593,inf,inf,inf,inf,1,1,1,1,2,0,2,1,6,1,1,1
497246827,15154129,-33.9385715,18.8741563,-1.8154119,1.511646,-0.1507069,-0.23954648,0.1367903,0.0,0.017320467,-0.022499816,0.011291781,-0.021060593,-1.5294534,0.020032808,-0.32580173,0.75407755,-0.8023671,0.19494534,-2.7953339,0.2715371,131.77486,0.10035915,0.29558408,0.4424661,0.13847224,0.10356735,inf,inf,inf,inf,1,1,1,1,2,0,2,1,6,1,1,1
497256832,15154129,-33.9385715,18.8741563,-1.8154192,1.5116283,-0.15070872,-0.23954648,0.1367903,0.0,0.016708437,-0.02440195,0.0063328505,-0.025759855,-1.5294534,0.020032808,-0.32580173,-0.7666225,-0.044398464,-1.3037407,-2.794708,0.2715371,131.77486,0.1002093,0.2964348,0.44310376,0.13894795,0.10373637,inf,inf,inf,inf,1,1,1,1,2,0,2,1,6,1,1,1
497266836,15154129,-33.9385715,18.8741563,-1.8153886,1.5115772,-0.15073471,-0.23954648,0.1367903,0.0,0.025431313,-0.028654471,0.008527785,-0.023303382,-1.5294534,0.020032808,-0.32580173,0.523156,-0.43894774,0.021934468,-2.7937796,0.2715371,131.77486,0.100091614,0.297291,0.4437434,0.13941987,0.103905566,inf,inf,inf,inf,1,1,1,1,2,0,2,1,6,1,1,1
497276840,15154129,-33.9385715,18.8741563,-1.8153177,1.5115013,-0.15077241,-0.23954648,0.1367903,0.0,0.029264513,-0.02877177,0.0060849776,-0.025482934,-1.5294534,0.020032808,-0.32580173,1.1682845,-0.16124912,0.18547209,-2.7926836,0.2715371,131.77486,0.10001629,0.2981527,0.44438496,0.13987966,0.1040742,inf,inf,inf,inf,1,1,1,1,2,0,2,1,6,1,1,1
497286844,15154129,-33.9385715,18.8741563,-1.8152051,1.5114121,-0.15081099,-0.23954648,0.1367903,0.0,0.027197037,-0.027462866,0.003397841,-0.02790534,-1.5294534,0.020032808,-0.32580173,-0.5025006,0.5003177,-0.6107892,-2.792104,0.2715371,131.77486,0.1,0.29901984,0.44502854,0.14034581,0.10424353,inf,inf,inf,inf,1,1,1,1,2,0,2,1,6,1,1,1
497296847,15154129,-33.9385715,18.8741563,-1.8150653,1.5113169,-0.15086907,-0.23954648,0.1367903,0.0,0.03369594,-0.030012514,0.004603187,-0.02643396,-1.5294534,0.020032808,-0.32580173,0.38831472,-0.097727366,0.47384024,-2.7915506,0.2715371,131.77486,0.1,0.2998925,0.44567403,0.14081565,0.10441306,inf,inf,inf,inf,1,1,1,1,2,0,2,1,6,1,1,1
497306853,15154129,-33.9385715,18.8741563,-1.814885,1.5112206,-0.15092275,-0.23954648,0.1367903,0.0,0.036397696,-0.030900609,0.0019265692,-0.028843408,-1.5294534,0.020032808,-0.32580173,0.460009,-0.7336614,-0.19140919,-2.7908657,0.2715371,131.77486,0.10000438,0.3007706,0.4463215,0.1412917,0.10458261,inf,inf,inf,inf,1,1,1,1,2,0,2,1,6,1,1,1
497316856,15154129,-33.9385715,18.8741563,-1.8146691,1.5111227,-0.1509734,-0.23954648,0.1367903,0.0,0.03818202,-0.027976658,0.003078397,-0.027423445,-1.5294534,0.020032808,-0.32580173,0.054978654,-0.010840053,-0.05456454,-2.7904968,0.2715371,131.77486,0.10003968,0.30165428,0.44697094,0.1417593,0.10475229,inf,inf,inf,inf,1,1,1,1,2,0,2,1,6,1,1,1
497326859,15154129,-33.9385715,18.8741563,-1.8144321,1.5110275,-0.15101545,-0.23954648,0.1367903,0.0,0.039229356,-0.026607873,0.0027132083,-0.027519021,-1.5294534,0.020032808,-0.32580173,-0.07622628,0.44548264,-0.1960572,-2.7894788,0.2715371,131.77486,0.10012547,0.3025435,0.44762233,0.14221558,0.104921214,inf,inf,inf,inf,1,1,1,1,2,0,2,1,6,1,1,1
497336864,15154129,-33.9385715,18.8741563,-1.8141603,1.5109336,-0.15114497,-0.23954648,0.1367903,0.0,0.043208364,-0.026775256,0.0077738212,-0.022305286,-1.5294534,0.020032808,-0.32580173,0.058284163,0.25859872,0.33344942,-2.7884455,0.2715371,131.77486,0.1,0.3034382,0.44464353,0.14268167,0.10476128,inf,inf,inf,inf,1,1,1,1,2,0,2,1,6,1,1,1
497346871,15154129,-33.9385715,18.8741563,-1.8139061,1.5108497,-0.15127912,-0.23954648,0.1367903,0.0,0.041539453,-0.026279343,0.005033132,-0.024886688,-1.5294534,0.020032808,-0.32580173,0.88223875,-0.21445322,0.56081265,-2.7878385,0.2715371,131.77486,0.1,0.30433843,0.44529355,0.14315717,0.10493115,inf,inf,inf,inf,1,1,1,1,2,0,2,1,6,1,1,1
497356872,15154129,-33.9385715,18.8741563,-1.813637,1.5107442,-0.15139827,-0.23954648,0.1367903,0.0,0.036707792,-0.029705627,0.0006294043,-0.029125849,-1.5294534,0.020032808,-0.32580173,-1.1462417,-0.48916727,-1.3253366,-2.7875128,0.2715371,131.77486,0.1,0.30524424,0.4459456,0.14364631,0.10510176,inf,inf,inf,inf,1,1,1,1,2,0,2,1,6,1,1,1
497366876,15154129,-33.9385715,18.8741563,-1.8133928,1.5106223,-0.15155645,-0.23954648,0.1367903,0.0,0.03675496,-0.032215737,-4.904341e-05,-0.029634835,-1.5294534,0.020032808,-0.32580173,-0.44388762,-1.0805525,-0.11905684,-2.7869225,0.2715371,131.77486,0.1,0.3061557,0.44659957,0.14412421,0.10527187,inf,inf,inf,inf,1,1,1,1,2,0,2,1,6,1,1,1
497376881,15154129,-33.9385715,18.8741563,-1.8131831,1.5104657,-0.15174228,-0.23954648,0.1367903,0.0,0.032899167,-0.031465646,-0.0051835426,-0.034595158,-1.5294534,0.020032808,-0.32580173,-0.0064331396,0.14172733,-0.30754843,-2.786135,0.2715371,131.77486,0.1,0.30707282,0.44725558,0.14458373,0.10544165,inf,inf,inf,inf,1,1,1,1,2,0,2,1,6,1,1,1
497386897,15154129,-33.9385715,18.8741563,-1.8130095,1.5102731,-0.15197402,-0.23954648,0.1367903,0.0,0.028539214,-0.03397876,-0.009404635,-0.038637638,-1.5294534,0.020032808,-0.32580173,-0.03358919,0.78489685,0.06511324,-2.7859104,0.2715371,131.77486,0.1,0.3079955,0.44791356,0.14507112,0.10561229,inf,inf,inf,inf,1,1,1,1,2,0,2,1,6,1,1,1
497396888,15154129,-33.9385715,18.8741563,-1.8128697,1.5100667,-0.15223044,-0.23954648,0.1367903,0.0,0.021079535,-0.03911755,-0.01833716,-0.047386948,-1.5294534,0.020032808,-0.32580173,-1.2226344,-0.5374125,-1.7610004,-2.7854595,0.2715371,131.77486,0.1,0.3089238,0.44857353,0.1455595,0.10578267,inf,inf,inf,inf,1,1,1,1,2,0,2,1,6,1,1,1
497406892,15154129,-33.9385715,18.8741563,-1.8127629,1.5098481,-0.15254673,-0.23954648,0.1367903,0.0,0.024151519,-0.04106481,-0.017930318,-0.046793003,-1.5294534,0.020032808,-0.32580173,0.46545252,-1.306957,0.13710341,-2.7854798,0.2715371,131.77486,0.1,0.30985785,0.44923553,0.14603265,0.10595315,inf,inf,inf,inf,1,1,1,1,2,0,2,1,6,1,1,1
497416896,15154129,-33.9385715,18.8741563,-1.8132918,1.5094864,-0.15267141,-0.23954648,0.1367903,0.0,0.018023737,-0.03797946,-0.02676042,-0.05518709,-1.5294534,0.020032808,-0.32580173,-0.19179687,0.9411044,-0.37613165,-2.7855005,0.2715371,131.77486,0.105975755,0.29330567,0.44521788,0.13666242,0.103290044,inf,inf,inf,inf,1,1,1,1,2,0,2,1,6,1,1,1
497426901,15154129,-33.9385715,18.8741563,-1.8137937,1.5091001,-0.15313283,-0.23954648,0.1367903,0.0,0.02188845,-0.044818126,-0.025477832,-0.053789556,-1.5294534,0.020032808,-0.32580173,0.15536235,0.16465169,0.08740528,-2.7851586,0.2715371,131.77486,0.1,0.2941399,0.4422813,0.13715291,0.103144884,inf,inf,inf,inf,1,1,1,1,2,0,2,1,6,1,1,1
497436904,15154129,-33.9385715,18.8741563,-1.8142782,1.5087074,-0.15358627,-0.23954648,0.1367903,0.0,0.021220721,-0.046402697,-0.025940476,-0.054130606,-1.5294534,0.020032808,-0.32580173,0.5076299,-0.76757514,0.12683778,-2.7845023,0.2715371,131.77486,0.1,0.29497954,0.44291565,0.1376143,0.10331412,inf,inf,inf,inf,1,1,1,1,2,0,2,1,6,1,1,1
497446908,15154129,-33.9385715,18.8741563,-1.814703,1.5083063,-0.15398307,-0.23954648,0.1367903,0.0,0.02233858,-0.04482546,-0.01991586,-0.047978092,-1.5294534,0.020032808,-0.32580173,-0.7321452,-0.14661592,-0.00091189425,-2.7837315,0.2715371,131.77486,0.1,0.2958246,0.44355196,0.1380957,0.1034842,inf,inf,inf,inf,1,1,1,1,2,0,2,1,6,1,1,1
497456912,15154129,-33.9385715,18.8741563,-1.8150932,1.5079045,-0.1543212,-0.23954648,0.1367903,0.0,0.03176247,-0.04307594,-0.009118256,-0.037046324,-1.5294534,0.020032808,-0.32580173,1.6240951,0.55847037,1.8358074,-2.7824717,0.2715371,131.77486,0.10034586,0.29667512,0.44419017,0.13857988,0.1036536,inf,inf,inf,inf,1,1,1,1,2,0,2,1,6,1,1,1
497466917,15154129,-33.9385715,18.8741563,-1.8154261,1.507498,-0.15456605,-0.23954648,0.1367903,0.0,0.028160205,-0.045327462,-0.006062125,-0.0338504,-1.5294534,0.020032808,-0.32580173,-0.018201703,0.21972667,0.44983065,-2.781086,0.2715371,131.77486,0.100667484,0.2975311,0.4448304,0.1390478,0.10382325,inf,inf,inf,inf,1,1,1,1,2,0,2,1,6,1,1,1
497476920,15154129,-33.9385715,18.8741563,-1.8156979,1.5070965,-0.15471822,-0.23954648,0.1367903,0.0,0.035372835,-0.04772995,0.0036949443,-0.023948215,-1.5294534,0.020032808,-0.32580173,0.10141975,-0.9745859,0.29899564,-2.7793183,0.2715371,131.77486,0.100888394,0.29839256,0.44547254,0.13953257,0.10399341,inf,inf,inf,inf,1,1,1,1,2,0,2,1,6,1,1,1
497486926,15154129,-33.9385715,18.8741563,-1.8159548,1.5066888,-0.15482609,-0.23954648,0.1367903,0.0,0.032102723,-0.043428265,0.004304245,-0.023188587,-1.5294534,0.020032808,-0.32580173,-0.02629625,0.28435796,-0.00831145,-2.7774038,0.2715371,131.77486,0.10106083,0.29925948,0.44611663,0.14000311,0.104162365,inf,inf,inf,inf,1,1,1,1,2,0,2,1,6,1,1,1
497496930,15154129,-33.9385715,18.8741563,-1.8161908,1.5062793,-0.1549023,-0.23954648,0.1367903,0.0,0.033339858,-0.04338304,0.009628381,-0.017709393,-1.5294534,0.020032808,-0.32580173,-0.11680133,0.78268695,0.6710753,-2.7759607,0.2715371,131.77486,0.1012008,0.30013192,0.4467627,0.14048044,0.10433197,inf,inf,inf,inf,1,1,1,1,2,0,2,1,6,1,1,1
497506934,15154129,-33.9385715,18.8741563,-1.816464,1.5058839,-0.15536286,-0.23954648,0.1367903,0.0,0.025480077,-0.043680068,0.0049946946,-0.022581229,-1.5294534,0.020032808,-0.32580173,-0.20101795,0.11499504,-0.2688447,-2.7750678,0.2715371,131.77486,0.1,0.30100983,0.44379932,0.14093636,0.104175694,inf,inf,inf,inf,1,1,1,1,2,0,2,1,6,1,1,1
497516937,15154129,-33.9385715,18.8741563,-1.8167427,1.5054953,-0.15579045,-0.23954648,0.1367903,0.0,0.02336826,-0.04486901,0.009707779,-0.018084526,-1.5294534,0.020032808,-0.32580173,-0.70013577,-0.58147043,0.21251307,-2.7749767,0.2715371,131.77486,0.1,0.30189323,0.4444441,0.14142494,0.10434569,inf,inf,inf,inf,1,1,1,1,2,0,2,1,6,1,1,1
497526942,15154129,-33.9385715,18.8741563,-1.8170395,1.5051194,-0.15616505,-0.23954648,0.1367903,0.0,0.021324378,-0.041008312,0.010878851,-0.017108329,-1.5294534,0.020032808,-0.32580173,-0.19240014,-0.080010295,-0.30978248,-2.7745128,0.2715371,131.77486,0.1,0.30278218,0.44509074,0.14192094,0.10451553,inf,inf,inf,inf,1,1,1,1,2,0,2,1,6,1,1,1
497536945,15154129,-33.9385715,18.8741563,-1.8173537,1.5047281,-0.15654086,-0.23954648,0.1367903,0.0,0.018975358,-0.04147604,0.012367476,-0.015794562,-1.5294534,0.020032808,-0.32580173,0.18583326,0.730346,1.0579458,-2.7744522,0.2715371,131.77486,0.1,0.30367678,0.44573942,0.14240226,0.10468533,inf,inf,inf,inf,1,1,1,1,2,0,2,1,6,1,1,1
497546950,15154129,-33.9385715,18.8741563,-1.8176515,1.5043443,-0.156863,-0.23954648,0.1367903,0.0,0.01849285,-0.04526471,0.010867901,-0.017449569,-1.5294534,0.020032808,-0.32580173,-0.24788727,-0.7797738,-0.64158726,-2.7739863,0.2715371,131.77486,0.1,0.3045769,0.44639006,0.14290293,0.10485538,inf,inf,inf,inf,1,1,1,1,2,0,2,1,6,1,1,1
497556953,15154129,-33.9385715,18.8741563,-1.8179387,1.5039483,-0.15717453,-0.23954648,0.1367903,0.0,0.018525733,-0.043440588,0.012831343,-0.015623124,-1.5294534,0.020032808,-0.32580173,-0.13330224,-0.107942015,0.09405954,-2.7734191,0.2715371,131.77486,0.1,0.30548275,0.44704267,0.14340118,0.105025634,inf,inf,inf,inf,1,1,1,1,2,0,2,1,6,1,1,1
497566957,15154129,-33.9385715,18.8741563,-1.8181942,1.5035486,-0.15745373,-0.23954648,0.1367903,0.0,0.023384402,-0.0424272,0.014822478,-0.013751339,-1.5294534,0.020032808,-0.32580173,0.5861175,0.49443692,0.23848248,-2.7723243,0.2715371,131.77486,0.1,0.30639425,0.44769728,0.14391877,0.10519666,inf,inf,inf,inf,1,1,1,1,2,0,2,1,6,1,1,1
497576962,15154129,-33.9385715,18.8741563,-1.81843,1.5031639,-0.15772006,-0.23954648,0.1367903,0.0,0.020407986,-0.042506747,0.012820937,-0.015854951,-1.5294534,0.020032808,-0.32580173,-0.081502065,-0.09539461,-0.0075199828,-2.7715676,0.2715371,131.77486,0.1,0.3073115,0.4483539,0.14439829,0.10536625,inf,inf,inf,inf,1,1,1,1,2,0,2,1,6,1,1,1
497587013,15154129,-33.9385715,18.8741563,-1.818621,1.5028055,-0.15795042,-0.23954648,0.1367903,0.0,0.026732389,-0.037550084,0.015314005,-0.013447755,-1.5294534,0.020032808,-0.32580173,0.30043066,0.25541404,-0.21721497,-2.770751,0.2715371,131.77486,0.1,0.3082344,0.44901246,0.14491893,0.10553734,inf,inf,inf,inf,1,1,1,1,2,0,2,1,6,1,1,1
497596978,15154129,-33.9385715,18.8741563,-1.8188083,1.502478,-0.1586542,-0.23954648,0.1367903,0.0,0.022267746,-0.033618376,0.01214919,-0.017153863,-1.5294534,0.020032808,-0.32580173,-0.15318513,0.8371081,-0.06218038,-2.7701497,0.2715371,131.77486,0.1,0.30916306,0.446007,0.14539742,0.10537012,inf,inf,inf,inf,1,1,1,1,2,0,2,1,6,1,1,1
497606974,15154129,-33.9385715,18.8741563,-1.8189824,1.5021975,-0.1593516,-0.23954648,0.1367903,0.0,0.025358927,-0.030899305,0.009932658,-0.019876026,-1.5294534,0.020032808,-0.32580173,0.3302616,0.0624297,-0.04656922,-2.7697463,0.2715371,131.77486,0.1,0.3100974,0.44666418,0.14588545,0.10554021,inf,inf,inf,inf,1,1,1,1,2,0,2,1,6,1,1,1
497616977,15154129,-33.9385715,18.8741563,-1.8193747,1.5018109,-0.15987012,-0.23954648,0.1367903,0.0,0.021924976,-0.025398681,0.008765349,-0.021360556,-1.5294534,0.020032808,-0.32580173,-0.570262,0.42507973,-0.6557652,-2.7694964,0.2715371,131.77486,0.1,0.29353812,0.4427343,0.1365032,0.10290703,inf,inf,inf,inf,1,1,1,1,2,0,2,1,6,1,1,1
497626981,15154129,-33.9385715,18.8741563,-1.8197902,1.5014626,-0.16043727,-0.23954648,0.1367903,0.0,0.020702109,-0.023533566,0.0017007918,-0.028716093,-1.5294534,0.020032808,-0.32580173,0.43987224,0.13864742,0.031469427,-2.7688246,0.2715371,131.77486,0.1,0.29437274,0.4433674,0.13693154,0.10307431,inf,inf,inf,inf,1,1,1,1,2,0,2,1,6,1,1,1
497636993,15154129,-33.9385715,18.8741563,-1.820166,1.5011373,-0.16097489,-0.23954648,0.1367903,0.0,0.019467425,-0.021659732,0.0038499243,-0.026832156,-1.5294534,0.020032808,-0.32580173,-0.8814091,0.11929724,-0.27452254,-2.7687922,0.2715371,131.77486,0.1,0.2952125,0.44400236,0.13739324,0.10324199,inf,inf,inf,inf,1,1,1,1,2,0,2,1,6,1,1,1
497647030,15154129,-33.9385715,18.8741563,-1.8205626,1.5008385,-0.16152525,-0.23954648,0.1367903,0.0,0.019777726,-0.017492026,-0.0026169203,-0.033540033,-1.5294534,0.020032808,-0.32580173,0.62677133,0.56584275,-0.6401274,-2.7679787,0.2715371,131.77486,0.1,0.29605767,0.4446393,0.13782847,0.1034095,inf,inf,inf,inf,1,1,1,1,2,0,2,1,6,1,1,1
497657010,15154129,-33.9385715,18.8741563,-1.8209441,1.500542,-0.16211297,-0.23954648,0.1367903,0.0,0.016982675,-0.022295427,-0.0050876066,-0.03622854,-1.5294534,0.020032808,-0.32580173,-0.118395016,-0.39681637,0.31028065,-2.7679055,0.2715371,131.77486,0.1,0.29690805,0.44527817,0.13830239,0.103577875,inf,inf,inf,inf,1,1,1,1,2,0,2,1,6,1,1,1
497667000,15154129,-33.9385715,18.8741563,-1.8213086,1.5002556,-0.1626602,-0.23954648,0.1367903,0.0,0.01868605,-0.017764265,-0.004995419,-0.036331233,-1.5294534,0.020032808,-0.32580173,0.11647375,0.23556629,-0.69298613,-2.767561,0.2715371,131.77486,0.1,0.29776385,0.44591892,0.1387584,0.10374548,inf,inf,inf,inf,1,1,1,1,2,0,2,1,6,1,1,1
497677001,15154129,-33.9385715,18.8741563,-1.8216584,1.4999521,-0.16325533,-0.23954648,0.1367903,0.0,0.017945116,-0.024479365,-0.012223833,-0.043733165,-1.5294534,0.020032808,-0.32580173,0.15726924,-0.5332866,-0.14579374,-2.7669833,0.2715371,131.77486,0.1,0.298625,0.44656166,0.13925585,0.10391462,inf,inf,inf,inf,1,1,1,1,2,0,2,1,6,1,1,1
497687006,15154129,-33.9385715,18.8741563,-1.8219777,1.4996202,-0.16429895,-0.23954648,0.1367903,0.0,0.019513648,-0.025609821,-0.008596334,-0.04073156,-1.5294534,0.020032808,-0.32580173,-0.036964275,-0.3253447,0.19105713,-2.7664444,0.2715371,131.77486,0.10087127,0.29949164,0.44359988,0.1397171,0.10375971,inf,inf,inf,inf,1,1,1,1,2,0,2,1,6,1,1,1
497697010,15154129,-33.9385715,18.8741563,-1.8222634,1.499257,-0.16530286,-0.23954648,0.1367903,0.0,0.023469828,-0.02928896,-0.010755599,-0.043476213,-1.5294534,0.020032808,-0.32580173,0.5789862,-0.2060276,-0.32279807,-2.7649727,0.2715371,131.77486,0.10187518,0.3003637,0.4442413,0.14019379,0.10392821,inf,inf,inf,inf,1,1,1,1,2,0,2,1,6,1,1,1
497707014,15154129,-33.9385715,18.8741563,-1.8225212,1.4988619,-0.16630155,-0.23954648,0.1367903,0.0,0.02123557,-0.03428805,-0.011516938,-0.044784233,-1.5294534,0.020032808,-0.32580173,-0.19057259,-0.6721751,0.38012773,-2.763754,0.2715371,131.77486,0.10287387,0.3012412,0.4448846,0.14067033,0.10409644,inf,inf,inf,inf,1,1,1,1,2,0,2,1,6,1,1,1
497717018,15154129,-33.9385715,18.8741563,-1.8227314,1.4984595,-0.16720134,-0.23954648,0.1367903,0.0,0.031203996,-0.029739253,-0.0006729172,-0.034449402,-1.5294534,0.020032808,-0.32580173,1.2439666,0.56737757,0.8616024,-2.7620292,0.2715371,131.77486,0.10377366,0.30212417,0.4455299,0.14115961,0.10426583,inf,inf,inf,inf,1,1,1,1,2,0,2,1,6,1,1,1
497727023,15154129,-33.9385715,18.8741563,-1.822874,1.4980733,-0.16804068,-0.23954648,0.1367903,0.0,0.030711485,-0.031615034,-0.0036066945,-0.037856895,-1.5294534,0.020032808,-0.32580173,-0.05233798,-0.1253811,-0.14117658,-2.760669,0.2715371,131.77486,0.104613,0.30301264,0.44617715,0.1416365,0.104434185,inf,inf,inf,inf,1,1,1,1,2,0,2,1,6,1,1,1
497737026,15154129,-33.9385715,18.8741563,-1.8230093,1.4977216,-0.16884996,-0.23954648,0.1367903,0.0,0.029005997,-0.025774697,-0.003400532,-0.03808978,-1.5294534,0.020032808,-0.32580173,-0.34853384,0.1755052,-0.38263217,-2.759488,0.2715371,131.77486,0.10542228,0.30390665,0.44682637,0.14211375,0.10460329,inf,inf,inf,inf,1,1,1,1,2,0,2,1,6,1,1,1
497747031,15154129,-33.9385715,18.8741563,-1.823134,1.4973859,-0.16963132,-0.23954648,0.1367903,0.0,0.03274733,-0.025614131,0.00018238218,-0.034912575,-1.5294534,0.020032808,-0.32580173,0.72791874,0.24346407,0.7508751,-2.7583382,0.2715371,131.77486,0.10620364,0.30480614,0.44747758,0.14260958,0.10477262,inf,inf,inf,inf,1,1,1,1,2,0,2,1,6,1,1,1
497757034,15154129,-33.9385715,18.8741563,-1.8232392,1.4970616,-0.17035402,-0.23954648,0.1367903,0.0,0.027688045,-0.02613849,8.140891e-05,-0.03538728,-1.5294534,0.020032808,-0.32580173,-0.6950016,-0.27415758,-0.18427241,-2.7579508,0.2715371,131.77486,0.106926344,0.3057112,0.4481307,0.14308912,0.104941465,inf,inf,inf,inf,1,1,1,1,2,0,2,1,6,1,1,1
497767038,15154129,-33.9385715,18.8741563,-1.8233591,1.4967577,-0.17167664,-0.23954648,0.1367903,0.0,0.029026806,-0.021600204,-0.0060726567,-0.04248874,-1.5294534,0.020032808,-0.32580173,0.32066363,0.31773108,-0.87605184,-2.7571971,0.2715371,131.77486,0.10824896,0.30662182,0.44514132,0.14359082,0.10477879,inf,inf,inf,inf,1,1,1,1,2,0,2,1,6,1,1,1
497777042,15154129,-33.9385715,18.8741563,-1.8234938,1.4964439,-0.17304736,-0.23954648,0.1367903,0.0,0.021401431,-0.027805565,-0.014552566,-0.051859587,-1.5294534,0.020032808,-0.32580173,-0.74856454,-0.61410683,-0.23849021,-2.75683,0.2715371,131.77486,0.109619685,0.30753806,0.44579306,0.14408989,0.10494834,inf,inf,inf,inf,1,1,1,1,2,0,2,1,6,1,1,1
497787046,15154129,-33.9385715,18.8741563,-1.8236605,1.496123,-0.17437595,-0.23954648,0.1367903,0.0,0.019988183,-0.024340186,-0.010996651,-0.049140476,-1.5294534,0.020032808,-0.32580173,-0.19531304,0.15861382,0.06669815,-2.756484,0.2715371,131.77486,0.11094827,0.3084599,0.4464468,0.144588,0.10511754,inf,inf,inf,inf,1,1,1,1,2,0,2,1,6,1,1,1
497797099,15154129,-33.9385715,18.8741563,-1.8238283,1.49579,-0.17567332,-0.23954648,0.1367903,0.0,0.021072151,-0.027926063,-0.013944065,-0.052873176,-1.5294534,0.020032808,-0.32580173,0.5549926,-0.07672374,0.002042752,-2.7561777,0.2715371,131.77486,0.11224564,0.30938742,0.44710246,0.14511046,0.10528783,inf,inf,inf,inf,1,1,1,1,2,0,2,1,6,1,1,1
497807054,15154129,-33.9385715,18.8741563,-1.8239443,1.495471,-0.17692783,-0.23954648,0.1367903,0.0,0.024324594,-0.025208252,-0.014225306,-0.053889547,-1.5294534,0.020032808,-0.32580173,-0.09107236,0.0061921147,-0.3923461,-2.7561996,0.2715371,131.77486,0.113500156,0.31032068,0.44776016,0.14559758,0.10545672,inf,inf,inf,inf,1,1,1,1,2,0,2,1,6,1,1,1
497817059,15154129,-33.9385715,18.8741563,-1.8239595,1.4952958,-0.17768523,-0.23954648,0.1367903,0.0,0.02553241,-0.022477647,-0.024763314,-0.064577326,-1.5294534,0.020032808,-0.32580173,0.6351389,0.58126396,-1.1245126,-2.7558074,0.2715371,131.77486,0.11425755,0.2937689,0.4438117,0.13631353,0.102831684,inf,inf,inf,inf,1,1,1,1,2,0,2,1,6,1,1,1
497827062,15154129,-33.9385715,18.8741563,-1.8239112,1.4951553,-0.17853367,-0.23954648,0.1367903,0.0,0.030404214,-0.021523526,-0.03539253,-0.07533344,-1.5294534,0.020032808,-0.32580173,0.0408422,-0.3325716,-0.82387275,-2.755499,0.2715371,131.77486,0.115105994,0.294603,0.44444537,0.13680243,0.103000134,inf,inf,inf,inf,1,1,1,1,2,0,2,1,6,1,1,1
497837066,15154129,-33.9385715,18.8741563,-1.8238206,1.4950019,-0.17936479,-0.23954648,0.1367903,0.0,0.035474967,-0.020065557,-0.024040947,-0.06408669,-1.5294534,0.020032808,-0.32580173,0.70703137,0.6358853,1.6461245,-2.7549644,0.2715371,131.77486,0.11593711,0.29544237,0.44508094,0.13728315,0.103167996,inf,inf,inf,inf,1,1,1,1,2,0,2,1,6,1,1,1
497847071,15154129,-33.9385715,18.8741563,-1.8236573,1.4949,-0.18008442,-0.23954648,0.1367903,0.0,0.04016592,-0.013638946,-0.022747645,-0.0628772,-1.5294534,0.020032808,-0.32580173,0.06703745,0.5733386,-0.448933,-2.754276,0.2715371,131.77486,0.11665674,0.29628718,0.44571844,0.13779315,0.103337675,inf,inf,inf,inf,1,1,1,1,2,0,2,1,6,1,1,1
497857075,15154129,-33.9385715,18.8741563,-1.8234382,1.4948436,-0.18125618,-0.23954648,0.1367903,0.0,0.047223903,-0.008451583,-0.021973573,-0.06262954,-1.5294534,0.020032808,-0.32580173,0.7546032,0.8711192,0.46616545,-2.7534955,0.2715371,131.77486,0.117828496,0.29713744,0.44277176,0.13826278,0.10318765,inf,inf,inf,inf,1,1,1,1,2,0,2,1,6,1,1,1
497867078,15154129,-33.9385715,18.8741563,-1.8231684,1.4948554,-0.18238816,-0.23954648,0.1367903,0.0,0.045337915,-0.0015473226,-0.025179159,-0.066322535,-1.5294534,0.020032808,-0.32580173,-0.80051225,0.6608302,-0.6395843,-2.753199,0.2715371,131.77486,0.11896048,0.29799303,0.44340798,0.13875523,0.10335655,inf,inf,inf,inf,1,1,1,1,2,0,2,1,6,1,1,1
497877083,15154129,-33.9385715,18.8741563,-1.822913,1.4949245,-0.1835096,-0.23954648,0.1367903,0.0,0.047196407,0.0045547336,-0.02388961,-0.06548223,-1.5294534,0.020032808,-0.32580173,0.468752,0.8170397,0.36750972,-2.752716,0.2715371,131.77486,0.120081924,0.29885408,0.44404614,0.13924468,0.103525095,inf,inf,inf,inf,1,1,1,1,2,0,2,1,6,1,1,1
497887086,15154129,-33.9385715,18.8741563,-1.8226388,1.4950403,-0.1845929,-0.23954648,0.1367903,0.0,0.042520422,0.005874639,-0.026423583,-0.06842885,-1.5294534,0.020032808,-0.32580173,-1.1909419,-0.09728606,-0.49856555,-2.753083,0.2715371,131.77486,0.12116522,0.2997206,0.44468623,0.13968901,0.10369192,inf,inf,inf,inf,1,1,1,1,2,0,2,1,6,1,1,1
497897091,15154129,-33.9385715,18.8741563,-1.8224369,1.4951617,-0.18566284,-0.23954648,0.1367903,0.0,0.03719431,0.008676549,-0.024897508,-0.06728021,-1.5294534,0.020032808,-0.32580173,-0.05032516,0.5905159,0.42883638,-2.753202,0.2715371,131.77486,0.12223516,0.30059236,0.44532827,0.14018929,0.103860974,inf,inf,inf,inf,1,1,1,1,2,0,2,1,6,1,1,1
497907117,15154129,-33.9385715,18.8741563,-1.8222439,1.4953139,-0.18669742,-0.23954648,0.1367903,0.0,0.034206778,0.008795439,-0.028093198,-0.07082019,-1.5294534,0.020032808,-0.32580173,-0.81118554,-0.4063576,-0.6440315,-2.753365,0.2715371,131.77486,0.123269744,0.30146962,0.44597223,0.14067924,0.10402889,inf,inf,inf,inf,1,1,1,1,2,0,2,1,6,1,1,1
497917099,15154129,-33.9385715,18.8741563,-1.8221341,1.4954386,-0.18775089,-0.23954648,0.1367903,0.0,0.023490362,0.0068063373,-0.031448826,-0.07448763,-1.5294534,0.020032808,-0.32580173,-0.7552541,0.063094996,0.018644998,-2.7536237,0.2715371,131.77486,0.12432321,0.3023524,0.44661817,0.1411562,0.10419705,inf,inf,inf,inf,1,1,1,1,2,0,2,1,6,1,1,1
497927103,15154129,-33.9385715,18.8741563,-1.8220618,1.4955821,-0.18876447,-0.23954648,0.1367903,0.0,0.023320755,0.010439914,-0.027530437,-0.07085015,-1.5294534,0.020032808,-0.32580173,-0.08007418,0.14652194,0.345809,-2.7534914,0.2715371,131.77486,0.1253368,0.3032406,0.447266,0.14164987,0.104364924,inf,inf,inf,inf,1,1,1,1,2,0,2,1,6,1,1,1
497937108,15154129,-33.9385715,18.8741563,-1.8220154,1.495712,-0.18973869,-0.23954648,0.1367903,0.0,0.0164092,0.0058368035,-0.028867254,-0.07243795,-1.5294534,0.020032808,-0.32580173,-0.8490882,-0.37391555,-0.16113058,-2.7533774,0.2715371,131.77486,0.126311,0.30413434,0.44791585,0.14216769,0.10453464,inf,inf,inf,inf,1,1,1,1,2,0,2,1,6,1,1,1
497947111,15154129,-33.9385715,18.8741563,-1.8220202,1.4958326,-0.19127071,-0.23954648,0.1367903,0.0,0.013234456,0.00985389,-0.027588565,-0.071967535,-1.5294534,0.020032808,-0.32580173,-0.17513114,0.70627797,0.29310864,-2.75287,0.2715371,131.77486,0.12784302,0.3050337,0.4449284,0.14269651,0.104374796,inf,inf,inf,inf,1,1,1,1,2,0,2,1,6,1,1,1
497957117,15154129,-33.9385715,18.8741563,-1.8220228,1.4959898,-0.19272141,-0.23954648,0.1367903,0.0,0.014856484,0.01108006,-0.023526326,-0.06866059,-1.5294534,0.020032808,-0.32580173,0.15964773,-0.039073184,0.1777095,-2.751868,0.2715371,131.77486,0.12929374,0.30593875,0.44557685,0.14317906,0.104542345,inf,inf,inf,inf,1,1,1,1,2,0,2,1,6,1,1,1
497967125,15154129,-33.9385715,18.8741563,-1.8220166,1.4961371,-0.19413115,-0.23954648,0.1367903,0.0,0.013762329,0.0098971855,-0.026266202,-0.07210429,-1.5294534,0.020032808,-0.32580173,-0.08756132,0.101743095,-0.11153574,-2.7510164,0.2715371,131.77486,0.13070348,0.30684933,0.44622728,0.14368935,0.10471189,inf,inf,inf,inf,1,1,1,1,2,0,2,1,6,1,1,1
497977123,15154129,-33.9385715,18.8741563,-1.8220156,1.4963076,-0.19545433,-0.23954648,0.1367903,0.0,0.013224452,0.01440612,-0.013804038,-0.060296785,-1.5294534,0.020032808,-0.32580173,0.07647502,0.36234057,1.5776621,-2.7497656,0.2715371,131.77486,0.13202664,0.3077655,0.4468796,0.14418665,0.10488048,inf,inf,inf,inf,1,1,1,1,2,0,2,1,6,1,1,1
497987128,15154129,-33.9385715,18.8741563,-1.8220173,1.4964992,-0.19666012,-0.23954648,0.1367903,0.0,0.01135994,0.015004197,-0.015958805,-0.06305869,-1.5294534,0.020032808,-0.32580173,-0.17368095,0.13924214,-0.8863862,-2.7482052,0.2715371,131.77486,0.13323244,0.30868733,0.44753397,0.144729,0.105051324,inf,inf,inf,inf,1,1,1,1,2,0,2,1,6,1,1,1
497997133,15154129,-33.9385715,18.8741563,-1.8220191,1.4967119,-0.19786221,-0.23954648,0.1367903,0.0,0.012623088,0.018714074,-0.0138815595,-0.061543226,-1.5294534,0.020032808,-0.32580173,0.2394888,0.41865894,0.94982296,-2.7463965,0.2715371,131.77486,0.13443452,0.3096149,0.44819027,0.14527224,0.10522221,inf,inf,inf,inf,1,1,1,1,2,0,2,1,6,1,1,1
498007135,15154129,-33.9385715,18.8741563,-1.8220084,1.4969478,-0.19891533,-0.23954648,0.1367903,0.0,0.011426323,0.019691713,0.00067670346,-0.04750284,-1.5294534,0.020032808,-0.32580173,-0.26592574,0.14843458,1.111434,-2.7446241,0.2715371,131.77486,0.13548765,0.3105483,0.44884858,0.14572938,0.1053894,inf,inf,inf,inf,1,1,1,1,2,0,2,1,6,1,1,1
498017140,15154129,-33.9385715,18.8741563,-1.8224151,1.4968452,-0.19968815,-0.23954648,0.1367903,0.0,0.0066509764,0.024688134,-0.00093425583,-0.04939202,-1.5294534,0.020032808,-0.32580173,-0.4969838,0.7032347,-0.046073124,-2.7430596,0.2715371,131.77486,0.13626048,0.29399696,0.44488126,0.13640788,0.10276805,inf,inf,inf,inf,1,1,1,1,2,0,2,1,6,1,1,1
498027145,15154129,-33.9385715,18.8741563,-1.8228523,1.4967988,-0.20118384,-0.23954648,0.1367903,0.0,0.0025005913,0.027045159,-0.0015032374,-0.050966013,-1.5294534,0.020032808,-0.32580173,-0.29298913,0.06745516,-0.30968833,-2.7415648,0.2715371,131.77486,0.13775617,0.2948308,0.4419495,0.136892,0.10262275,inf,inf,inf,inf,1,1,1,1,2,0,2,1,6,1,1,1
498037147,15154129,-33.9385715,18.8741563,-1.8233104,1.4967842,-0.20271254,-0.23954648,0.1367903,0.0,-0.0016250834,0.03024447,-0.01636677,-0.06677047,-1.5294534,0.020032808,-0.32580173,-0.45368063,0.3622786,-1.3534448,-2.7403467,0.2715371,131.77486,0.13928485,0.29566994,0.44258055,0.13739367,0.10279069,inf,inf,inf,inf,1,1,1,1,2,0,2,1,6,1,1,1
498047152,15154129,-33.9385715,18.8741563,-1.8237635,1.4968015,-0.20424907,-0.23954648,0.1367903,0.0,0.00077134726,0.031134693,-0.01262476,-0.063908,-1.5294534,0.020032808,-0.32580173,0.30927,0.044101663,0.68162584,-2.739358,0.2715371,131.77486,0.1408214,0.2965145,0.44321352,0.13787916,0.10295785,inf,inf,inf,inf,1,1,1,1,2,0,2,1,6,1,1,1
498057156,15154129,-33.9385715,18.8741563,-1.8241762,1.4968337,-0.20571925,-0.23954648,0.1367903,0.0,0.002123861,0.032390513,-0.016109936,-0.0682134,-1.5294534,0.020032808,-0.32580173,-0.06176869,0.25546518,-0.6407873,-2.7387073,0.2715371,131.77486,0.14229158,0.29736447,0.44384846,0.13838044,0.103125565,inf,inf,inf,inf,1,1,1,1,2,0,2,1,6,1,1,1
498067160,15154129,-33.9385715,18.8741563,-1.8245527,1.496895,-0.20715056,-0.23954648,0.1367903,0.0,0.0070158225,0.034129035,-0.010677023,-0.06354346,-1.5294534,0.020032808,-0.32580173,0.70775384,0.088364504,1.0439413,-2.7380588,0.2715371,131.77486,0.14372289,0.29821983,0.4444853,0.13886786,0.1032922,inf,inf,inf,inf,1,1,1,1,2,0,2,1,6,1,1,1
498077164,15154129,-33.9385715,18.8741563,-1.8248671,1.496977,-0.20849791,-0.23954648,0.1367903,0.0,0.010348068,0.035837222,-0.014420987,-0.06799553,-1.5294534,0.020032808,-0.32580173,0.2759029,0.25503427,-1.0384837,-2.7375379,0.2715371,131.77486,0.14507023,0.2990806,0.4451241,0.13937463,0.10346027,inf,inf,inf,inf,1,1,1,1,2,0,2,1,6,1,1,1
498087168,15154129,-33.9385715,18.8741563,-1.8251429,1.4970899,-0.20988359,-0.23954648,0.1367903,0.0,0.01319034,0.038045406,-0.020513602,-0.074743465,-1.5294534,0.020032808,-0.32580173,0.48051807,0.17857134,0.113936156,-2.7370117,0.2715371,131.77486,0.14645591,0.29994687,0.44576475,0.13988242,0.103627466,inf,inf,inf,inf,1,1,1,1,2,0,2,1,6,1,1,1
498097176,15154129,-33.9385715,18.8741563,-1.8253566,1.4972146,-0.2112253,-0.23954648,0.1367903,0.0,0.017910715,0.037166927,-0.020147553,-0.0749821,-1.5294534,0.020032808,-0.32580173,0.23713095,-0.036349528,-0.40972868,-2.73627,0.2715371,131.77486,0.14779761,0.30081868,0.44640744,0.14036362,0.103794456,inf,inf,inf,inf,1,1,1,1,2,0,2,1,6,1,1,1
498107259,15154129,-33.9385715,18.8741563,-1.8255447,1.497348,-0.21260764,-0.23954648,0.1367903,0.0,0.01678662,0.03790082,-0.03417572,-0.089566045,-1.5294534,0.020032808,-0.32580173,-0.09765666,0.15525971,-1.3466107,-2.7355223,0.2715371,131.77486,0.14917997,0.30169588,0.44705197,0.14086603,0.10396179,inf,inf,inf,inf,1,1,1,1,2,0,2,1,6,1,1,1
498117205,15154129,-33.9385715,18.8741563,-1.8257134,1.4974884,-0.21482942,-0.23954648,0.1367903,0.0,0.020492494,0.037617657,-0.034312844,-0.09102657,-1.5294534,0.020032808,-0.32580173,0.5489027,-0.054788552,0.34487924,-2.7347634,0.2715371,131.77486,0.15140173,0.30257866,0.44408023,0.14135987,0.103804305,inf,inf,inf,inf,1,1,1,1,2,0,2,1,6,1,1,1
498127187,15154129,-33.9385715,18.8741563,-1.8258337,1.49763,-0.21701145,-0.23954648,0.1367903,0.0,0.022751015,0.037224364,-0.04399195,-0.10194822,-1.5294534,0.020032808,-0.32580173,0.1571061,0.06807535,-1.5465537,-2.7340932,0.2715371,131.77486,0.15358377,0.3034669,0.44472346,0.14184289,0.10397169,inf,inf,inf,inf,1,1,1,1,2,0,2,1,6,1,1,1
498137194,15154129,-33.9385715,18.8741563,-1.8259245,1.4977865,-0.21925443,-0.23954648,0.1367903,0.0,0.025097974,0.038427178,-0.05319241,-0.112313345,-1.5294534,0.020032808,-0.32580173,0.39384675,0.102368064,-0.2840962,-2.733596,0.2715371,131.77486,0.15582675,0.30436057,0.4453686,0.14235345,0.10413989,inf,inf,inf,inf,1,1,1,1,2,0,2,1,6,1,1,1
498147192,15154129,-33.9385715,18.8741563,-1.8259451,1.4979568,-0.22140515,-0.23954648,0.1367903,0.0,0.03363965,0.039980575,-0.04129947,-0.10151023,-1.5294534,0.020032808,-0.32580173,0.8260836,0.3662035,1.1969992,-2.7329786,0.2715371,131.77486,0.15797746,0.30525988,0.44601572,0.1428067,0.10430564,inf,inf,inf,inf,1,1,1,1,2,0,2,1,6,1,1,1
498157197,15154129,-33.9385715,18.8741563,-1.8258917,1.4981691,-0.223453,-0.23954648,0.1367903,0.0,0.037217993,0.04481134,-0.047528073,-0.108756505,-1.5294534,0.020032808,-0.32580173,0.23574373,0.54736125,-1.2276169,-2.7326336,0.2715371,131.77486,0.16002533,0.30616453,0.44666472,0.14331757,0.10447374,inf,inf,inf,inf,1,1,1,1,2,0,2,1,6,1,1,1
498167200,15154129,-33.9385715,18.8741563,-1.8258301,1.4984196,-0.22552142,-0.23954648,0.1367903,0.0,0.03352006,0.045397338,-0.050877225,-0.11305407,-1.5294534,0.020032808,-0.32580173,-0.43067145,-0.09749687,0.3184269,-2.732723,0.2715371,131.77486,0.16209373,0.30707482,0.44731572,0.14381309,0.104641624,inf,inf,inf,inf,1,1,1,1,2,0,2,1,6,1,1,1
498177204,15154129,-33.9385715,18.8741563,-1.8257906,1.4986815,-0.22749276,-0.23954648,0.1367903,0.0,0.031675797,0.04765296,-0.044075117,-0.10713378,-1.5294534,0.020032808,-0.32580173,-0.07110487,0.41468194,0.36231336,-2.7330837,0.2715371,131.77486,0.1640651,0.30799064,0.44796863,0.14426081,0.104806855,inf,inf,inf,inf,1,1,1,1,2,0,2,1,6,1,1,1
498187208,15154129,-33.9385715,18.8741563,-1.8257514,1.498995,-0.22944419,-0.23954648,0.1367903,0.0,0.030190762,0.054140143,-0.05797643,-0.12185289,-1.5294534,0.020032808,-0.32580173,-0.30979258,0.7457101,-1.7627984,-2.7337575,0.2715371,131.77486,0.16601652,0.30891186,0.44862354,0.14477463,0.10497503,inf,inf,inf,inf,1,1,1,1,2,0,2,1,6,1,1,1
498197213,15154129,-33.9385715,18.8741563,-1.8257328,1.4993584,-0.23149627,-0.23954648,0.1367903,0.0,0.026834741,0.056269128,-0.07113651,-0.13576894,-1.5294534,0.020032808,-0.32580173,-0.25731885,0.24609847,-1.0003859,-2.7347064,0.2715371,131.77486,0.16806859,0.30983874,0.44928035,0.14528443,0.105142824,inf,inf,inf,inf,1,1,1,1,2,0,2,1,6,1,1,1
498207219,15154129,-33.9385715,18.8741563,-1.8257052,1.4997406,-0.2345067,-0.23954648,0.1367903,0.0,0.03134441,0.057069536,-0.07429806,-0.14056982,-1.5294534,0.020032808,-0.32580173,0.7749448,0.14893577,-0.20841852,-2.7358322,0.2715371,131.77486,0.17107901,0.3107713,0.4462667,0.14585173,0.10497672,inf,inf,inf,inf,1,1,1,1,2,0,2,1,6,1,1,1
498217225,15154129,-33.9385715,18.8741563,-1.8261453,1.5001273,-0.23730356,-0.23954648,0.1367903,0.0,0.041016504,0.060998306,-0.07492103,-0.14257741,-1.5294534,0.020032808,-0.32580173,1.0577234,0.34165102,0.026911205,-2.736968,0.2715371,131.77486,0.17387587,0.294225,0.44238722,0.13651235,0.10238649,inf,inf,inf,inf,1,1,1,1,2,0,2,1,6,1,1,1
498227233,15154129,-33.9385715,18.8741563,-1.8264834,1.5005388,-0.24001317,-0.23954648,0.1367903,0.0,0.04503379,0.06007005,-0.07198682,-0.14093994,-1.5294534,0.020032808,-0.32580173,0.1794828,-0.2994842,0.25626078,-2.7381797,0.2715371,131.77486,0.1765855,0.29505828,0.44301695,0.13701701,0.10255411,inf,inf,inf,inf,1,1,1,1,2,0,2,1,6,1,1,1
498237237,15154129,-33.9385715,18.8741563,-1.8267893,1.5009334,-0.2426445,-0.23954648,0.1367903,0.0,0.043657213,0.05792926,-0.07359633,-0.14376158,-1.5294534,0.020032808,-0.32580173,-0.1145977,-0.15569933,-0.2148151,-2.7394433,0.2715371,131.77486,0.17921683,0.29589698,0.44364864,0.13748905,0.102720805,inf,inf,inf,inf,1,1,1,1,2,0,2,1,6,1,1,1
498247233,15154129,-33.9385715,18.8741563,-1.827094,1.5013216,-0.2452241,-0.23954648,0.1367903,0.0,0.040345617,0.057964254,-0.07454463,-0.14584017,-1.5294534,0.020032808,-0.32580173,-0.34368315,0.113350675,0.0003939463,-2.740683,0.2715371,131.77486,0.18179643,0.29674095,0.44428217,0.13799673,0.102888726,inf,inf,inf,inf,1,1,1,1,2,0,2,1,6,1,1,1
498257237,15154129,-33.9385715,18.8741563,-1.827405,1.5017126,-0.24773479,-0.23954648,0.1367903,0.0,0.03792099,0.056221712,-0.072820514,-0.1451681,-1.5294534,0.020032808,-0.32580173,-0.18528259,-0.29306054,0.2930085,-2.7417393,0.2715371,131.77486,0.1843071,0.2975904,0.44491768,0.1385147,0.10305736,inf,inf,inf,inf,1,1,1,1,2,0,2,1,6,1,1,1
498267241,15154129,-33.9385715,18.8741563,-1.8277038,1.5020825,-0.2501667,-0.23954648,0.1367903,0.0,0.037858304,0.05366788,-0.071676105,-0.14500077,-1.5294534,0.020032808,-0.32580173,-0.0339396,-0.19072437,0.15833029,-2.742705,0.2715371,131.77486,0.18673903,0.2984453,0.44555506,0.13900876,0.10322484,inf,inf,inf,inf,1,1,1,1,2,0,2,1,6,1,1,1
498277249,15154129,-33.9385715,18.8741563,-1.8279827,1.5024285,-0.25253087,-0.23954648,0.1367903,0.0,0.03703077,0.051079646,-0.07167258,-0.14590184,-1.5294534,0.020032808,-0.32580173,-0.20323108,-0.04946475,-0.014433193,-2.7437992,0.2715371,131.77486,0.18910319,0.29930568,0.44619438,0.13956235,0.103394814,inf,inf,inf,inf,1,1,1,1,2,0,2,1,6,1,1,1
498287250,15154129,-33.9385715,18.8741563,-1.8282665,1.5027603,-0.25557184,-0.23954648,0.1367903,0.0,0.032413714,0.04947743,-0.07314918,-0.14895196,-1.5294534,0.020032808,-0.32580173,-0.6118677,-0.04301254,-0.20780693,-2.7447472,0.2715371,131.77486,0.19214416,0.3001717,0.44323808,0.14005823,0.10324214,inf,inf,inf,inf,1,1,1,1,2,0,2,1,6,1,1,1
498297254,15154129,-33.9385715,18.8741563,-1.8285866,1.5030681,-0.25855756,-0.23954648,0.1367903,0.0,0.027102053,0.0451812,-0.07720931,-0.15448622,-1.5294534,0.020032808,-0.32580173,-0.4012808,-0.32697538,-0.52863324,-2.7451396,0.2715371,131.77486,0.19512987,0.3010432,0.44387612,0.140593,0.10341157,inf,inf,inf,inf,1,1,1,1,2,0,2,1,6,1,1,1
498307279,15154129,-33.9385715,18.8741563,-1.8289053,1.5033424,-0.2615012,-0.23954648,0.1367903,0.0,0.028151453,0.041748464,-0.07890195,-0.15755735,-1.5294534,0.020032808,-0.32580173,0.15564743,-0.22543667,0.0081556095,-2.745453,0.2715371,131.77486,0.1980735,0.30192035,0.44451612,0.14112848,0.103580974,inf,inf,inf,inf,1,1,1,1,2,0,2,1,6,1,1,1
498317276,15154129,-33.9385715,18.8741563,-1.82918,1.5036013,-0.26433438,-0.23954648,0.1367903,0.0,0.032064315,0.040642932,-0.06923591,-0.14917749,-1.5294534,0.020032808,-0.32580173,0.40424168,-0.1314154,1.4762422,-2.7454653,0.2715371,131.77486,0.2009067,0.30280313,0.445158,0.14158374,0.10374692,inf,inf,inf,inf,1,1,1,1,2,0,2,1,6,1,1,1
498327265,15154129,-33.9385715,18.8741563,-1.829401,1.5038507,-0.2669571,-0.23954648,0.1367903,0.0,0.03405287,0.039515138,-0.055854097,-0.13699333,-1.5294534,0.020032808,-0.32580173,-0.028395943,-0.033237364,0.9897235,-2.7451274,0.2715371,131.77486,0.20352942,0.30369127,0.44580185,0.1421108,0.1039159,inf,inf,inf,inf,1,1,1,1,2,0,2,1,6,1,1,1
498337269,15154129,-33.9385715,18.8741563,-1.8296175,1.5041074,-0.2694864,-0.23954648,0.1367903,0.0,0.031014115,0.04037548,-0.06519697,-0.14744836,-1.5294534,0.020032808,-0.32580173,-0.18829066,0.029057605,-1.3587391,-2.7448306,0.2715371,131.77486,0.20605871,0.304585,0.44644764,0.14262794,0.104083575,inf,inf,inf,inf,1,1,1,1,2,0,2,1,6,1,1,1
498347280,15154129,-33.9385715,18.8741563,-1.8298464,1.5043672,-0.27207607,-0.23954648,0.1367903,0.0,0.027645644,0.038518444,-0.07728963,-0.16057138,-1.5294534,0.020032808,-0.32580173,-0.3043086,-0.3794927,-0.7914694,-2.744446,0.2715371,131.77486,0.20864838,0.3054844,0.4470954,0.14310755,0.104249954,inf,inf,inf,inf,1,1,1,1,2,0,2,1,6,1,1,1
498357277,15154129,-33.9385715,18.8741563,-1.8300786,1.504583,-0.27460447,-0.23954648,0.1367903,0.0,0.028020237,0.031221949,-0.06520655,-0.14943957,-1.5294534,0.020032808,-0.32580173,0.24770486,-0.8319731,1.8691665,-2.7439454,0.2715371,131.77486,0.21117678,0.30638927,0.44774503,0.14366852,0.1044196,inf,inf,inf,inf,1,1,1,1,2,0,2,1,6,1,1,1
498367281,15154129,-33.9385715,18.8741563,-1.8302723,1.5047414,-0.2769119,-0.23954648,0.1367903,0.0,0.032121304,0.027042186,-0.0506967,-0.13580544,-1.5294534,0.020032808,-0.32580173,0.63797987,-0.34507325,1.1456201,-2.7432153,0.2715371,131.77486,0.21348423,0.30729997,0.44839665,0.14422733,0.10458936,inf,inf,inf,inf,1,1,1,1,2,0,2,1,6,1,1,1
498377286,15154129,-33.9385715,18.8741563,-1.8304033,1.5048847,-0.27983606,-0.23954648,0.1367903,0.0,0.03657775,0.026794143,-0.050491307,-0.13715585,-1.5294534,0.020032808,-0.32580173,0.51922035,-0.068091914,0.023071943,-2.7426336,0.2715371,131.77486,0.21640837,0.3082165,0.44539934,0.1447468,0.10442577,inf,inf,inf,inf,1,1,1,1,2,0,2,1,6,1,1,1
498387290,15154129,-33.9385715,18.8741563,-1.8304957,1.5050156,-0.2826597,-0.23954648,0.1367903,0.0,0.036325153,0.023102906,-0.0460356,-0.13415296,-1.5294534,0.020032808,-0.32580173,-0.055847123,-0.5462659,0.78558296,-2.742108,0.2715371,131.77486,0.21923202,0.30913877,0.4460496,0.14525798,0.10459451,inf,inf,inf,inf,1,1,1,1,2,0,2,1,6,1,1,1
498397293,15154129,-33.9385715,18.8741563,-1.8305558,1.5051157,-0.28533274,-0.23954648,0.1367903,0.0,0.040589027,0.021842059,-0.03926727,-0.12873842,-1.5294534,0.020032808,-0.32580173,0.47383094,0.078333035,0.53894156,-2.7415566,0.2715371,131.77486,0.22190505,0.3100667,0.44670182,0.14575611,0.104762286,inf,inf,inf,inf,1,1,1,1,2,0,2,1,6,1,1,1
498407299,15154129,-33.9385715,18.8741563,-1.8305641,1.5052111,-0.28786954,-0.23954648,0.1367903,0.0,0.043286752,0.01989858,-0.034334,-0.12506373,-1.5294534,0.020032808,-0.32580173,0.21300283,-0.28714156,0.42391893,-2.7408912,0.2715371,131.77486,0.22444186,0.31100023,0.44735593,0.14627302,0.10493013,inf,inf,inf,inf,1,1,1,1,2,0,2,1,6,1,1,1
498417302,15154129,-33.9385715,18.8741563,-1.8304168,1.5051706,-0.29018313,-0.23954648,0.1367903,0.0,0.0400781,0.01440013,-0.040904626,-0.1326546,-1.5294534,0.020032808,-0.32580173,-0.3724186,-0.42168054,-1.2242533,-2.7403288,0.2715371,131.77486,0.22675544,0.29441905,0.44345605,0.13688834,0.10234345,inf,inf,inf,inf,1,1,1,1,2,0,2,1,6,1,1,1
498427305,15154129,-33.9385715,18.8741563,-1.8303012,1.505088,-0.29254922,-0.23954648,0.1367903,0.0,0.034996256,0.0099088345,-0.05423037,-0.14691882,-1.5294534,0.020032808,-0.32580173,-0.5369582,-0.37860182,-0.98766834,-2.7402678,0.2715371,131.77486,0.22912154,0.2952526,0.4440865,0.13737683,0.102509424,inf,inf,inf,inf,1,1,1,1,2,0,2,1,6,1,1,1
498437310,15154129,-33.9385715,18.8741563,-1.8301967,1.5049721,-0.29486963,-0.23954648,0.1367903,0.0,0.037627455,0.006539475,-0.044989374,-0.13853787,-1.5294534,0.020032808,-0.32580173,0.6048226,-0.26517707,1.309623,-2.7401745,0.2715371,131.77486,0.23144194,0.2960915,0.44471884,0.13786812,0.10267601,inf,inf,inf,inf,1,1,1,1,2,0,2,1,6,1,1,1
498447314,15154129,-33.9385715,18.8741563,-1.8300028,1.504842,-0.29700983,-0.23954648,0.1367903,0.0,0.04789846,0.006234781,-0.03539207,-0.12972462,-1.5294534,0.020032808,-0.32580173,0.7675976,0.13280948,0.523097,-2.7399054,0.2715371,131.77486,0.23358214,0.29693577,0.4453531,0.1383648,0.10284248,inf,inf,inf,inf,1,1,1,1,2,0,2,1,6,1,1,1
498457318,15154129,-33.9385715,18.8741563,-1.8297307,1.5047061,-0.2990562,-0.23954648,0.1367903,0.0,0.050773967,0.00250921,-0.036639363,-0.13168365,-1.5294534,0.020032808,-0.32580173,-0.08401057,-0.54711336,-0.14381003,-2.7395465,0.2715371,131.77486,0.23562852,0.29778552,0.44598928,0.13886817,0.10300917,inf,inf,inf,inf,1,1,1,1,2,0,2,1,6,1,1,1
498467322,15154129,-33.9385715,18.8741563,-1.8294727,1.504503,-0.30193934,-0.23954648,0.1367903,0.0,0.044313986,-0.0067456593,-0.039861962,-0.13643287,-1.5294534,0.020032808,-0.32580173,-0.77934843,-0.7771927,-0.35227284,-2.739193,0.2715371,131.77486,0.23851165,0.29864067,0.4430348,0.1393818,0.10285826,inf,inf,inf,inf,1,1,1,1,2,0,2,1,6,1,1,1
498477326,15154129,-33.9385715,18.8741563,-1.8292532,1.5042508,-0.30475947,-0.23954648,0.1367903,0.0,0.04302002,-0.007654499,-0.04059564,-0.1385874,-1.5294534,0.020032808,-0.32580173,0.09641505,0.209283,0.13876273,-2.7388644,0.2715371,131.77486,0.24133179,0.2995014,0.44366968,0.13988791,0.10302569,inf,inf,inf,inf,1,1,1,1,2,0,2,1,6,1,1,1
498487330,15154129,-33.9385715,18.8741563,-1.8289976,1.5040199,-0.30743748,-0.23954648,0.1367903,0.0,0.049234148,-0.0048854887,-0.028588142,-0.12789913,-1.5294534,0.020032808,-0.32580173,0.7473636,0.3085869,1.4317617,-2.738367,0.2715371,131.77486,0.2440098,0.3003676,0.44430646,0.14035185,0.103191406,inf,inf,inf,inf,1,1,1,1,2,0,2,1,6,1,1,1
498497335,15154129,-33.9385715,18.8741563,-1.8286799,1.5038083,-0.3099356,-0.23954648,0.1367903,0.0,0.052880988,-0.0056308424,-0.025528384,-0.12606059,-1.5294534,0.020032808,-0.32580173,0.32944524,-0.20053029,-0.3379691,-2.7377954,0.2715371,131.77486,0.24650791,0.30123916,0.44494513,0.14080271,0.10335609,inf,inf,inf,inf,1,1,1,1,2,0,2,1,6,1,1,1
498507357,15154129,-33.9385715,18.8741563,-1.8283427,1.5035875,-0.31241155,-0.23954648,0.1367903,0.0,0.049812943,-0.007917799,-0.037146933,-0.13880645,-1.5294534,0.020032808,-0.32580173,-0.62912494,-0.399178,-1.2495338,-2.7371519,0.2715371,131.77486,0.24898386,0.302116,0.44558573,0.14134118,0.103524536,inf,inf,inf,inf,1,1,1,1,2,0,2,1,6,1,1,1
498517342,15154129,-33.9385715,18.8741563,-1.8280488,1.5033337,-0.31488535,-0.23954648,0.1367903,0.0,0.046090286,-0.012580059,-0.037697636,-0.1403943,-1.5294534,0.020032808,-0.32580173,-0.05959983,-0.5068553,0.47911173,-2.736417,0.2715371,131.77486,0.25145766,0.30299854,0.44622824,0.14189085,0.10369322,inf,inf,inf,inf,1,1,1,1,2,0,2,1,6,1,1,1
498527347,15154129,-33.9385715,18.8741563,-1.827736,1.5030639,-0.31724,-0.23954648,0.1367903,0.0,0.051960107,-0.011244171,-0.031064484,-0.13471161,-1.5294534,0.020032808,-0.32580173,0.9411073,0.24356726,0.6208269,-2.7355552,0.2715371,131.77486,0.2538123,0.30388686,0.44687274,0.14234883,0.10385857,inf,inf,inf,inf,1,1,1,1,2,0,2,1,6,1,1,1
498537350,15154129,-33.9385715,18.8741563,-1.8273355,1.5028228,-0.31948563,-0.23954648,0.1367903,0.0,0.059249487,-0.009917624,-0.030091688,-0.13460562,-1.5294534,0.020032808,-0.32580173,0.533904,-0.17577843,0.08795594,-2.734663,0.2715371,131.77486,0.25605795,0.3047805,0.4475191,0.1427988,0.1040235,inf,inf,inf,inf,1,1,1,1,2,0,2,1,6,1,1,1
498547354,15154129,-33.9385715,18.8741563,-1.8269148,1.5025508,-0.32254243,-0.23954648,0.1367903,0.0,0.055159397,-0.016623756,-0.03662824,-0.14279148,-1.5294534,0.020032808,-0.32580173,-0.4432312,-0.6539953,-0.68657076,-2.73366,0.2715371,131.77486,0.25911474,0.30567953,0.44453785,0.14330399,0.10386399,inf,inf,inf,inf,1,1,1,1,2,0,2,1,6,1,1,1
498557413,15154129,-33.9385715,18.8741563,-1.8265057,1.5022696,-0.325585,-0.23954648,0.1367903,0.0,0.056610774,-0.010735955,-0.04448968,-0.15218744,-1.5294534,0.020032808,-0.32580173,0.45770538,0.9317044,-0.48731178,-2.732816,0.2715371,131.77486,0.26215732,0.30658415,0.4451828,0.14379406,0.10403038,inf,inf,inf,inf,1,1,1,1,2,0,2,1,6,1,1,1
498567387,15154129,-33.9385715,18.8741563,-1.8260516,1.5020686,-0.32854423,-0.23954648,0.1367903,0.0,0.06182371,-0.006423718,-0.03858642,-0.14770819,-1.5294534,0.020032808,-0.32580173,0.4829136,-0.16422808,1.0270157,-2.732064,0.2715371,131.77486,0.26511654,0.3074943,0.44582972,0.14427623,0.104197025,inf,inf,inf,inf,1,1,1,1,2,0,2,1,6,1,1,1
498577371,15154129,-33.9385715,18.8741563,-1.8255631,1.5018497,-0.3313223,-0.23954648,0.1367903,0.0,0.061606515,-0.012192225,-0.029305568,-0.13974515,-1.5294534,0.020032808,-0.32580173,-0.13375385,-0.588549,0.7271258,-2.7313068,0.2715371,131.77486,0.26789463,0.30841005,0.4464786,0.1447665,0.10436392,inf,inf,inf,inf,1,1,1,1,2,0,2,1,6,1,1,1
498587373,15154129,-33.9385715,18.8741563,-1.8250482,1.5016601,-0.33398858,-0.23954648,0.1367903,0.0,0.06679568,0.00036443607,-0.032866847,-0.14452168,-1.5294534,0.020032808,-0.32580173,0.67270947,1.589922,-0.4447315,-2.7307148,0.2715371,131.77486,0.2705609,0.30933127,0.44712937,0.14530173,0.10453202,inf,inf,inf,inf,1,1,1,1,2,0,2,1,6,1,1,1
498597374,15154129,-33.9385715,18.8741563,-1.8244872,1.5015826,-0.33661804,-0.23954648,0.1367903,0.0,0.06826719,0.0033116955,-0.0359515,-0.14872351,-1.5294534,0.020032808,-0.32580173,0.056220703,-0.5991785,0.16832325,-2.7301319,0.2715371,131.77486,0.27319035,0.31025833,0.44778213,0.14586435,0.10470139,inf,inf,inf,inf,1,1,1,1,2,0,2,1,6,1,1,1
498607379,15154129,-33.9385715,18.8741563,-1.8239425,1.5014424,-0.33914897,-0.23954648,0.1367903,0.0,0.06419695,-0.0062073157,-0.0311724,-0.14496674,-1.5294534,0.020032808,-0.32580173,-0.075058356,-0.4854507,0.620201,-2.72956,0.2715371,131.77486,0.27572128,0.31119126,0.44843683,0.1463411,0.10486734,inf,inf,inf,inf,1,1,1,1,2,0,2,1,6,1,1,1
498617383,15154129,-33.9385715,18.8741563,-1.8236516,1.5013077,-0.34114617,-0.23954648,0.1367903,0.0,0.06959822,0.006775401,-0.02539349,-0.13970456,-1.5294534,0.020032808,-0.32580173,0.9090927,1.6942588,0.63403666,-2.7288735,0.2715371,131.77486,0.27771848,0.29462436,0.4445187,0.13691832,0.102284655,inf,inf,inf,inf,1,1,1,1,2,0,2,1,6,1,1,1
498627387,15154129,-33.9385715,18.8741563,-1.82329,1.5012667,-0.34304854,-0.23954648,0.1367903,0.0,0.07134943,0.007030442,-0.027300391,-0.14205964,-1.5294534,0.020032808,-0.32580173,-0.2627155,-0.5132487,-0.6682549,-2.72807,0.2715371,131.77486,0.27962086,0.29545704,0.4451497,0.13741851,0.10245118,inf,inf,inf,inf,1,1,1,1,2,0,2,1,6,1,1,1
498637390,15154129,-33.9385715,18.8741563,-1.8229505,1.5011901,-0.34591883,-0.23954648,0.1367903,0.0,0.06533042,0.0052183466,-0.037458427,-0.15356106,-1.5294534,0.020032808,-0.32580173,-0.43162107,0.5542203,-0.82411534,-2.7277071,0.2715371,131.77486,0.28249115,0.29629514,0.44221026,0.1379268,0.1023045,inf,inf,inf,inf,1,1,1,1,2,0,2,1,6,1,1,1
498647395,15154129,-33.9385715,18.8741563,-1.8226119,1.5011911,-0.34873173,-0.23954648,0.1367903,0.0,0.067516096,0.016708003,-0.033151563,-0.15049179,-1.5294534,0.020032808,-0.32580173,0.23345923,0.88784933,0.81140256,-2.7276294,0.2715371,131.77486,0.28530404,0.2971387,0.44283998,0.13842756,0.10247068,inf,inf,inf,inf,1,1,1,1,2,0,2,1,6,1,1,1
498657399,15154129,-33.9385715,18.8741563,-1.8222629,1.5012108,-0.35139477,-0.23954648,0.1367903,0.0,0.06448886,0.0071519692,-0.028481433,-0.14695774,-1.5294534,0.020032808,-0.32580173,-0.3348462,-1.4123608,0.1800865,-2.7275722,0.2715371,131.77486,0.2879671,0.2979877,0.44347164,0.13888255,0.10263564,inf,inf,inf,inf,1,1,1,1,2,0,2,1,6,1,1,1
498667403,15154129,-33.9385715,18.8741563,-1.8219237,1.5011961,-0.35397494,-0.23954648,0.1367903,0.0,0.06386421,0.014652889,-0.032359015,-0.15187392,-1.5294534,0.020032808,-0.32580173,0.09032992,1.404559,-0.46072525,-2.727403,0.2715371,131.77486,0.29054725,0.29884195,0.44410518,0.13937096,0.10280197,inf,inf,inf,inf,1,1,1,1,2,0,2,1,6,1,1,1
498677407,15154129,-33.9385715,18.8741563,-1.8215593,1.5012957,-0.35651797,-0.23954648,0.1367903,0.0,0.0657127,0.022189962,-0.036737926,-0.15719771,-1.5294534,0.020032808,-0.32580173,0.05106846,-0.0059880475,-0.37360522,-2.7271318,0.2715371,131.77486,0.29309028,0.29970163,0.44474062,0.13991514,0.102969944,inf,inf,inf,inf,1,1,1,1,2,0,2,1,6,1,1,1
498687411,15154129,-33.9385715,18.8741563,-1.8212126,1.501374,-0.35902035,-0.23954648,0.1367903,0.0,0.05753876,0.013054137,-0.040943027,-0.1622579,-1.5294534,0.020032808,-0.32580173,-1.0092032,-0.99722993,-0.50979304,-2.7270157,0.2715371,131.77486,0.29559267,0.30056694,0.445378,0.14041848,0.10313643,inf,inf,inf,inf,1,1,1,1,2,0,2,1,6,1,1,1
498697419,15154129,-33.9385715,18.8741563,-1.8209118,1.5014235,-0.36148122,-0.23954648,0.1367903,0.0,0.056819994,0.018003838,-0.041004106,-0.16308773,-1.5294534,0.020032808,-0.32580173,0.27386907,0.87974,0.43667424,-2.7267222,0.2715371,131.77486,0.29805353,0.3014378,0.44601727,0.14089668,0.10330214,inf,inf,inf,inf,1,1,1,1,2,0,2,1,6,1,1,1
498707432,15154129,-33.9385715,18.8741563,-1.8205547,1.501534,-0.36380017,-0.23954648,0.1367903,0.0,0.06362594,0.020963157,-0.029977834,-0.15274736,-1.5294534,0.020032808,-0.32580173,0.44259882,-0.04564935,1.004527,-2.7258976,0.2715371,131.77486,0.30037248,0.30231407,0.4466585,0.14139652,0.103469215,inf,inf,inf,inf,1,1,1,1,2,0,2,1,6,1,1,1
498717423,15154129,-33.9385715,18.8741563,-1.820159,1.5016282,-0.3659984,-0.23954648,0.1367903,0.0,0.06288931,0.01729382,-0.033588592,-0.15696478,-1.5294534,0.020032808,-0.32580173,-0.27465212,-0.07740752,-0.9357564,-2.7250333,0.2715371,131.77486,0.3025707,0.30319586,0.4473016,0.14192487,0.10363651,inf,inf,inf,inf,1,1,1,1,2,0,2,1,6,1,1,1
498727428,15154129,-33.9385715,18.8741563,-1.8197602,1.5017473,-0.36899367,-0.23954648,0.1367903,0.0,0.063459575,0.02473198,-0.040971212,-0.16567989,-1.5294534,0.020032808,-0.32580173,0.17829776,0.9413455,-0.63786197,-2.7244897,0.2715371,131.77486,0.30556598,0.30408332,0.44432238,0.14246197,0.10347983,inf,inf,inf,inf,1,1,1,1,2,0,2,1,6,1,1,1
498737431,15154129,-33.9385715,18.8741563,-1.8193253,1.5019246,-0.3719378,-0.23954648,0.1367903,0.0,0.066561975,0.0242549,-0.042471047,-0.16840309,-1.5294534,0.020032808,-0.32580173,0.11937482,-0.6754127,-0.063170336,-2.72394,0.2715371,131.77486,0.30851012,0.30497646,0.4449641,0.14294554,0.10364568,inf,inf,inf,inf,1,1,1,1,2,0,2,1,6,1,1,1
498747435,15154129,-33.9385715,18.8741563,-1.8188916,1.5020419,-0.37480778,-0.23954648,0.1367903,0.0,0.06307254,0.01664674,-0.043922033,-0.17097327,-1.5294534,0.020032808,-0.32580173,-0.1936422,-0.46831867,0.0068247523,-2.7233307,0.2715371,131.77486,0.3113801,0.30587515,0.44560778,0.14341727,0.10381116,inf,inf,inf,inf,1,1,1,1,2,0,2,1,6,1,1,1
498757441,15154129,-33.9385715,18.8741563,-1.81844,1.5021758,-0.37756178,-0.23954648,0.1367903,0.0,0.06861993,0.02600478,-0.037409846,-0.16548014,-1.5294534,0.020032808,-0.32580173,0.78437555,1.0579321,0.6732758,-2.7225049,0.2715371,131.77486,0.3141341,0.30677927,0.4462534,0.1439399,0.103978716,inf,inf,inf,inf,1,1,1,1,2,0,2,1,6,1,1,1
498767444,15154129,-33.9385715,18.8741563,-1.8179295,1.5023752,-0.38023266,-0.23954648,0.1367903,0.0,0.069846995,0.026536904,-0.04686263,-0.17585513,-1.5294534,0.020032808,-0.32580173,-0.29262412,-0.37381443,-1.4036489,-2.7217703,0.2715371,131.77486,0.31680498,0.30768907,0.4469009,0.14446099,0.10414588,inf,inf,inf,inf,1,1,1,1,2,0,2,1,6,1,1,1
498777448,15154129,-33.9385715,18.8741563,-1.8174512,1.5025568,-0.3829493,-0.23954648,0.1367903,0.0,0.063800134,0.02579329,-0.057218626,-0.18704104,-1.5294534,0.020032808,-0.32580173,-0.3420046,0.31095627,-0.35868537,-2.7215207,0.2715371,131.77486,0.3195216,0.3086046,0.44755042,0.14495274,0.10431197,inf,inf,inf,inf,1,1,1,1,2,0,2,1,6,1,1,1
498787451,15154129,-33.9385715,18.8741563,-1.8169633,1.5027853,-0.3855847,-0.23954648,0.1367903,0.0,0.06897471,0.030673228,-0.04919646,-0.17976077,-1.5294534,0.020032808,-0.32580173,0.54896665,-0.050116,0.9003976,-2.7212892,0.2715371,131.77486,0.32215703,0.3095257,0.44820178,0.14544417,0.10447789,inf,inf,inf,inf,1,1,1,1,2,0,2,1,6,1,1,1
498797456,15154129,-33.9385715,18.8741563,-1.8164614,1.5029833,-0.3881148,-0.23954648,0.1367903,0.0,0.065188825,0.022881512,-0.052042563,-0.18326375,-1.5294534,0.020032808,-0.32580173,-0.32566187,-0.58192945,-0.3436907,-2.7212353,0.2715371,131.77486,0.32468712,0.31045237,0.44885513,0.14596409,0.1046454,inf,inf,inf,inf,1,1,1,1,2,0,2,1,6,1,1,1
498807461,15154129,-33.9385715,18.8741563,-1.8159517,1.5031865,-0.3911666,-0.23954648,0.1367903,0.0,0.0710867,0.031790573,-0.05139661,-0.18378046,-1.5294534,0.020032808,-0.32580173,1.0715238,1.2468653,0.13791004,-2.7210197,0.2715371,131.77486,0.3277389,0.3113848,0.44584838,0.14651577,0.10447912,inf,inf,inf,inf,1,1,1,1,2,0,2,1,6,1,1,1
498817464,15154129,-33.9385715,18.8741563,-1.8155397,1.5033677,-0.39360505,-0.23954648,0.1367903,0.0,0.0730162,0.02856261,-0.06148226,-0.19434918,-1.5294534,0.020032808,-0.32580173,-0.39931977,-0.69819427,-1.4571667,-2.7208781,0.2715371,131.77486,0.33017737,0.2947721,0.4420162,0.1370829,0.10192567,inf,inf,inf,inf,1,1,1,1,2,0,2,1,6,1,1,1
498827468,15154129,-33.9385715,18.8741563,-1.8151568,1.5034881,-0.39608246,-0.23954648,0.1367903,0.0,0.0671037,0.023208903,-0.068452135,-0.20172742,-1.5294534,0.020032808,-0.32580173,-0.268392,-0.014329966,-0.22776277,-2.7207494,0.2715371,131.77486,0.33265477,0.29560438,0.4426428,0.13756198,0.10209056,inf,inf,inf,inf,1,1,1,1,2,0,2,1,6,1,1,1
498837471,15154129,-33.9385715,18.8741563,-1.8147442,1.5036165,-0.398502,-0.23954648,0.1367903,0.0,0.073987976,0.024517233,-0.066384755,-0.1999967,-1.5294534,0.020032808,-0.32580173,0.54292905,-0.26462102,0.07326168,-2.7201457,0.2715371,131.77486,0.3350743,0.296442,0.4432713,0.13807468,0.10225687,inf,inf,inf,inf,1,1,1,1,2,0,2,1,6,1,1,1
498847477,15154129,-33.9385715,18.8741563,-1.8143172,1.5036887,-0.40087122,-0.23954648,0.1367903,0.0,0.06768611,0.013882198,-0.069847494,-0.20372738,-1.5294534,0.020032808,-0.32580173,-0.7186902,-0.92663074,-0.17309399,-2.7193704,0.2715371,131.77486,0.33744353,0.2972851,0.44390172,0.13859008,0.10242352,inf,inf,inf,inf,1,1,1,1,2,0,2,1,6,1,1,1
498857480,15154129,-33.9385715,18.8741563,-1.813895,1.5037459,-0.40316185,-0.23954648,0.1367903,0.0,0.07265018,0.022191145,-0.06422093,-0.19830275,-1.5294534,0.020032808,-0.32580173,0.80372167,1.2797606,0.54887867,-2.7183552,0.2715371,131.77486,0.33973417,0.2981337,0.444534,0.1391042,0.10258949,inf,inf,inf,inf,1,1,1,1,2,0,2,1,6,1,1,1
498867484,15154129,-33.9385715,18.8741563,-1.8134241,1.5038637,-0.4054103,-0.23954648,0.1367903,0.0,0.071297534,0.020181956,-0.07561522,-0.209836,-1.5294534,0.020032808,-0.32580173,-0.5627122,-0.7190618,-1.5572817,-2.7177215,0.2715371,131.77486,0.3419826,0.29898787,0.44516823,0.13960607,0.1027554,inf,inf,inf,inf,1,1,1,1,2,0,2,1,6,1,1,1
498877489,15154129,-33.9385715,18.8741563,-1.8129761,1.5039788,-0.4076958,-0.23954648,0.1367903,0.0,0.07064907,0.02730894,-0.07894552,-0.21324472,-1.5294534,0.020032808,-0.32580173,0.4757945,1.4750751,0.12600276,-2.7172174,0.2715371,131.77486,0.3442681,0.29984745,0.4458043,0.14006805,0.10292003,inf,inf,inf,inf,1,1,1,1,2,0,2,1,6,1,1,1
498887492,15154129,-33.9385715,18.8741563,-1.812508,1.5041804,-0.40996224,-0.23954648,0.1367903,0.0,0.06821222,0.028492983,-0.087613806,-0.22193387,-1.5294534,0.020032808,-0.32580173,-0.70084286,-0.7360695,-1.3274122,-2.716873,0.2715371,131.77486,0.34653455,0.30071244,0.4464423,0.14058267,0.10308679,inf,inf,inf,inf,1,1,1,1,2,0,2,1,6,1,1,1
498897497,15154129,-33.9385715,18.8741563,-1.8120806,1.5043647,-0.41285568,-0.23954648,0.1367903,0.0,0.06533046,0.031774383,-0.08758747,-0.22248541,-1.5294534,0.020032808,-0.32580173,0.2740376,1.2286048,0.8427659,-2.7168534,0.2715371,131.77486,0.349428,0.30158296,0.4434787,0.14111355,0.102933675,inf,inf,inf,inf,1,1,1,1,2,0,2,1,6,1,1,1
498907501,15154129,-33.9385715,18.8741563,-1.8116367,1.5046397,-0.41562766,-0.23954648,0.1367903,0.0,0.06424579,0.03655586,-0.08465295,-0.22004905,-1.5294534,0.020032808,-0.32580173,-0.60627025,-0.5085695,-0.17647487,-2.7168133,0.2715371,131.77486,0.35219997,0.30245915,0.44411537,0.14162265,0.10310048,inf,inf,inf,inf,1,1,1,1,2,0,2,1,6,1,1,1
498917525,15154129,-33.9385715,18.8741563,-1.8112037,1.5048975,-0.41834316,-0.23954648,0.1367903,0.0,0.06530979,0.038358055,-0.085486665,-0.2213045,-1.5294534,0.020032808,-0.32580173,0.49919397,1.4028094,0.39297223,-2.7169228,0.2715371,131.77486,0.35491547,0.30334094,0.44475397,0.14213203,0.10326693,inf,inf,inf,inf,1,1,1,1,2,0,2,1,6,1,1,1
498927508,15154129,-33.9385715,18.8741563,-1.8107315,1.5052801,-0.42097747,-0.23954648,0.1367903,0.0,0.06711313,0.050069265,-0.08595185,-0.22211795,-1.5294534,0.020032808,-0.32580173,-0.13576306,0.17667653,-0.18091749,-2.716728,0.2715371,131.77486,0.3575498,0.30422828,0.44539443,0.14261527,0.10343226,inf,inf,inf,inf,1,1,1,1,2,0,2,1,6,1,1,1
498937512,15154129,-33.9385715,18.8741563,-1.8102696,1.5056585,-0.42358938,-0.23954648,0.1367903,0.0,0.06487291,0.046033513,-0.09219236,-0.22863656,-1.5294534,0.020032808,-0.32580173,0.18932599,0.46538782,-0.43246156,-2.7168,0.2715371,131.77486,0.3601617,0.30512115,0.44603685,0.14315659,0.10360023,inf,inf,inf,inf,1,1,1,1,2,0,2,1,6,1,1,1
498947516,15154129,-33.9385715,18.8741563,-1.8097756,1.5061262,-0.42615464,-0.23954648,0.1367903,0.0,0.06735798,0.0604322,-0.09133558,-0.22798994,-1.5294534,0.020032808,-0.32580173,-0.19476049,0.97387934,-0.047482118,-2.7169976,0.2715371,131.77486,0.36272696,0.30601978,0.44668117,0.14370267,0.10376749,inf,inf,inf,inf,1,1,1,1,2,0,2,1,6,1,1,1
498957520,15154129,-33.9385715,18.8741563,-1.8093138,1.5065843,-0.42866912,-0.23954648,0.1367903,0.0,0.06040169,0.046668224,-0.09292452,-0.22972478,-1.5294534,0.020032808,-0.32580173,-0.40141138,-1.2241815,0.0068582664,-2.7172976,0.2715371,131.77486,0.36524144,0.30692422,0.44732746,0.14418237,0.10393302,inf,inf,inf,inf,1,1,1,1,2,0,2,1,6,1,1,1
498967525,15154129,-33.9385715,18.8741563,-1.8088486,1.5070351,-0.4311122,-0.23954648,0.1367903,0.0,0.0645469,0.0577611,-0.09087894,-0.2277623,-1.5294534,0.020032808,-0.32580173,0.3578611,1.165748,0.032348428,-2.7171926,0.2715371,131.77486,0.3676845,0.30783418,0.44797564,0.14470147,0.10409953,inf,inf,inf,inf,1,1,1,1,2,0,2,1,6,1,1,1
498977528,15154129,-33.9385715,18.8741563,-1.8083892,1.507509,-0.43350908,-0.23954648,0.1367903,0.0,0.057563595,0.047128193,-0.09335824,-0.23026592,-1.5294534,0.020032808,-0.32580173,-0.7598864,-1.7013364,-0.04176494,-2.7169373,0.2715371,131.77486,0.3700814,0.30874985,0.44862577,0.14521042,0.104266204,inf,inf,inf,inf,1,1,1,1,2,0,2,1,6,1,1,1
498987532,15154129,-33.9385715,18.8741563,-1.8079411,1.5079463,-0.43651086,-0.23954648,0.1367903,0.0,0.06255468,0.05587663,-0.08957217,-0.22713166,-1.5294534,0.020032808,-0.32580173,0.7926692,1.4289136,0.19483978,-2.7164388,0.2715371,131.77486,0.37308317,0.3096712,0.44562143,0.14575885,0.1041025,inf,inf,inf,inf,1,1,1,1,2,0,2,1,6,1,1,1
498997537,15154129,-33.9385715,18.8741563,-1.8074645,1.5084261,-0.4394684,-0.23954648,0.1367903,0.0,0.058444537,0.048331946,-0.09967087,-0.23779826,-1.5294534,0.020032808,-0.32580173,-0.773506,-1.5300013,-1.122929,-2.7157943,0.2715371,131.77486,0.37604073,0.31059843,0.44627014,0.14629719,0.10426985,inf,inf,inf,inf,1,1,1,1,2,0,2,1,6,1,1,1
499007542,15154129,-33.9385715,18.8741563,-1.8070008,1.5088592,-0.44240052,-0.23954648,0.1367903,0.0,0.06161777,0.053672485,-0.09728296,-0.23589776,-1.5294534,0.020032808,-0.32580173,0.55730903,1.2810711,0.5359628,-2.7149496,0.2715371,131.77486,0.37897283,0.31153148,0.44692078,0.14680299,0.10443674,inf,inf,inf,inf,1,1,1,1,2,0,2,1,6,1,1,1
499017548,15154129,-33.9385715,18.8741563,-1.8064159,1.5094644,-0.44525322,-0.23954648,0.1367903,0.0,0.060073197,0.047982186,-0.10799585,-0.24698763,-1.5294534,0.020032808,-0.32580173,-0.67541164,-1.3189082,-1.4619447,-2.7140229,0.2715371,131.77486,0.38182554,0.29489636,0.44306877,0.13734911,0.101886824,inf,inf,inf,inf,1,1,1,1,2,0,2,1,6,1,1,1
499027562,15154129,-33.9385715,18.8741563,-1.8058529,1.5100092,-0.44810766,-0.23954648,0.1367903,0.0,0.06092628,0.050237555,-0.10706463,-0.24636093,-1.5294534,0.020032808,-0.32580173,0.5647638,1.2059827,0.50770825,-2.712758,0.2715371,131.77486,0.38467997,0.2957288,0.4436961,0.13782729,0.102051675,inf,inf,inf,inf,1,1,1,1,2,0,2,1,6,1,1,1
499037597,15154129,-33.9385715,18.8741563,-1.8052818,1.5105803,-0.450908,-0.23954648,0.1367903,0.0,0.05525909,0.044420056,-0.11465727,-0.25418827,-1.5294534,0.020032808,-0.32580173,-1.117055,-1.3746642,-1.2982274,-2.71131,0.2715371,131.77486,0.38748032,0.29656658,0.44432527,0.13836513,0.10221857,inf,inf,inf,inf,1,1,1,1,2,0,2,1,6,1,1,1
499047579,15154129,-33.9385715,18.8741563,-1.8047602,1.5111059,-0.45366758,-0.23954648,0.1367903,0.0,0.054096892,0.049758364,-0.10692076,-0.24662,-1.5294534,0.020032808,-0.32580173,0.0611395,1.354701,1.4192415,-2.7100308,0.2715371,131.77486,0.3902399,0.29740998,0.44495636,0.13887703,0.10238439,inf,inf,inf,inf,1,1,1,1,2,0,2,1,6,1,1,1
499057562,15154129,-33.9385715,18.8741563,-1.8042641,1.5116636,-0.4562929,-0.23954648,0.1367903,0.0,0.048115566,0.04442002,-0.10504487,-0.24484867,-1.5294534,0.020032808,-0.32580173,-0.6437821,-1.0699041,-0.19683619,-2.708833,0.2715371,131.77486,0.3928652,0.29825887,0.4455893,0.13940786,0.10255077,inf,inf,inf,inf,1,1,1,1,2,0,2,1,6,1,1,1
499067565,15154129,-33.9385715,18.8741563,-1.8037559,1.5122335,-0.459588,-0.23954648,0.1367903,0.0,0.054750077,0.05606579,-0.09299115,-0.23363125,-1.5294534,0.020032808,-0.32580173,0.5339719,1.4345189,1.3404355,-2.707404,0.2715371,131.77486,0.3961603,0.2991134,0.4426413,0.13990912,0.10240056,inf,inf,inf,inf,1,1,1,1,2,0,2,1,6,1,1,1
499077569,15154129,-33.9385715,18.8741563,-1.8032167,1.5128442,-0.4627303,-0.23954648,0.1367903,0.0,0.056387495,0.053378213,-0.09169586,-0.23307836,-1.5294534,0.020032808,-0.32580173,0.6291244,0.10914838,0.19298276,-2.705852,0.2715371,131.77486,0.3993026,0.29997343,0.44327295,0.14040096,0.10256535,inf,inf,inf,inf,1,1,1,1,2,0,2,1,6,1,1,1
499087574,15154129,-33.9385715,18.8741563,-1.8026085,1.5135317,-0.46574667,-0.23954648,0.1367903,0.0,0.06155975,0.06558629,-0.08783447,-0.22986987,-1.5294534,0.020032808,-0.32580173,-0.21708891,0.4590393,-0.29407993,-2.7039986,0.2715371,131.77486,0.40231898,0.30083895,0.44390652,0.14090711,0.10273127,inf,inf,inf,inf,1,1,1,1,2,0,2,1,6,1,1,1
499097582,15154129,-33.9385715,18.8741563,-1.8019959,1.5142125,-0.46870732,-0.23954648,0.1367903,0.0,0.0629028,0.062317282,-0.08903735,-0.23164003,-1.5294534,0.020032808,-0.32580173,0.6907165,0.9040557,0.619462,-2.7025373,0.2715371,131.77486,0.40527964,0.30171004,0.444542,0.14141326,0.10289698,inf,inf,inf,inf,1,1,1,1,2,0,2,1,6,1,1,1
499107581,15154129,-33.9385715,18.8741563,-1.8013815,1.5149354,-0.47158593,-0.23954648,0.1367903,0.0,0.053846974,0.06073183,-0.09388966,-0.23697712,-1.5294534,0.020032808,-0.32580173,-1.79259,-1.5823362,-1.164712,-2.7009912,0.2715371,131.77486,0.40815824,0.3025867,0.44517934,0.14193894,0.103063345,inf,inf,inf,inf,1,1,1,1,2,0,2,1,6,1,1,1
499117587,15154129,-33.9385715,18.8741563,-1.8008456,1.5156076,-0.47440135,-0.23954648,0.1367903,0.0,0.05249997,0.06460484,-0.08499276,-0.22848624,-1.5294534,0.020032808,-0.32580173,0.19699393,1.4200082,1.3736229,-2.6995542,0.2715371,131.77486,0.41097367,0.30346903,0.44581863,0.14244357,0.10322895,inf,inf,inf,inf,1,1,1,1,2,0,2,1,6,1,1,1
499127589,15154129,-33.9385715,18.8741563,-1.8003818,1.5162991,-0.47714397,-0.23954648,0.1367903,0.0,0.03795983,0.059239715,-0.094971396,-0.23879516,-1.5294534,0.020032808,-0.32580173,-1.2602518,-0.5985112,-0.80200034,-2.6982276,0.2715371,131.77486,0.4137163,0.30435696,0.4464598,0.1429528,0.10339447,inf,inf,inf,inf,1,1,1,1,2,0,2,1,6,1,1,1
499137593,15154129,-33.9385715,18.8741563,-1.7999803,1.5170271,-0.47984833,-0.23954648,0.1367903,0.0,0.03589265,0.0697687,-0.09533151,-0.23941326,-1.5294534,0.020032808,-0.32580173,-0.68778175,0.5608308,-0.74083924,-2.6970463,0.2715371,131.77486,0.41642064,0.30525056,0.44710293,0.143454,0.103560165,inf,inf,inf,inf,1,1,1,1,2,0,2,1,6,1,1,1
499147597,15154129,-33.9385715,18.8741563,-1.7996252,1.5177836,-0.48254234,-0.23954648,0.1367903,0.0,0.033309266,0.073044136,-0.096985675,-0.2412561,-1.5294534,0.020032808,-0.32580173,0.31862903,1.4083544,0.9388617,-2.6961365,0.2715371,131.77486,0.41911465,0.30614975,0.44774795,0.14396892,0.10372583,inf,inf,inf,inf,1,1,1,1,2,0,2,1,6,1,1,1
499157601,15154129,-33.9385715,18.8741563,-1.7992759,1.5185956,-0.48578972,-0.23954648,0.1367903,0.0,0.03017465,0.07203907,-0.103173584,-0.24819262,-1.5294534,0.020032808,-0.32580173,-0.4839263,-0.78122574,-1.2090364,-2.6955092,0.2715371,131.77486,0.42236203,0.30705464,0.44475988,0.14446451,0.103564434,inf,inf,inf,inf,1,1,1,1,2,0,2,1,6,1,1,1
499167606,15154129,-33.9385715,18.8741563,-1.7989215,1.5194207,-0.48896176,-0.23954648,0.1367903,0.0,0.033020616,0.07895264,-0.09583143,-0.24150772,-1.5294534,0.020032808,-0.32580173,-0.034186263,0.6202788,0.65495914,-2.694919,0.2715371,131.77486,0.42553407,0.30796516,0.44540346,0.1450089,0.10373154,inf,inf,inf,inf,1,1,1,1,2,0,2,1,6,1,1,1
499177610,15154129,-33.9385715,18.8741563,-1.7985673,1.5202258,-0.49206072,-0.23954648,0.1367903,0.0,0.03340171,0.07258967,-0.10081399,-0.2470602,-1.5294534,0.020032808,-0.32580173,0.50968033,0.21682824,0.16876225,-2.694516,0.2715371,131.77486,0.42863303,0.30888152,0.446049,0.14551081,0.103897415,inf,inf,inf,inf,1,1,1,1,2,0,2,1,6,1,1,1
499187613,15154129,-33.9385715,18.8741563,-1.7982073,1.5210505,-0.49508423,-0.23954648,0.1367903,0.0,0.027324324,0.07370109,-0.10387649,-0.25060883,-1.5294534,0.020032808,-0.32580173,-1.4053912,-0.9168963,-1.2101257,-2.6937842,0.2715371,131.77486,0.43165654,0.30980358,0.44669652,0.14605965,0.104065135,inf,inf,inf,inf,1,1,1,1,2,0,2,1,6,1,1,1
499197619,15154129,-33.9385715,18.8741563,-1.7979056,1.5218468,-0.49810866,-0.23954648,0.1367903,0.0,0.026118118,0.077555895,-0.108823605,-0.2559608,-1.5294534,0.020032808,-0.32580173,0.104143776,1.5298154,0.033244494,-2.6932132,0.2715371,131.77486,0.43468097,0.31073153,0.44734588,0.14656852,0.1042309,inf,inf,inf,inf,1,1,1,1,2,0,2,1,6,1,1,1
499207622,15154129,-33.9385715,18.8741563,-1.7976531,1.5226846,-0.5011335,-0.23954648,0.1367903,0.0,0.013972655,0.07274577,-0.12219041,-0.2696554,-1.5294534,0.020032808,-0.32580173,-1.611744,-1.247796,-1.6100167,-2.6926498,0.2715371,131.77486,0.4377058,0.31166524,0.44799727,0.14710946,0.10439796,inf,inf,inf,inf,1,1,1,1,2,0,2,1,6,1,1,1
499217626,15154129,-33.9385715,18.8741563,-1.7982996,1.5238831,-0.5041476,-0.23954648,0.1367903,0.0,0.012854067,0.08583942,-0.12599148,-0.2736792,-1.5294534,0.020032808,-0.32580173,-0.14353539,1.8631579,-0.5155537,-2.6920457,0.2715371,131.77486,0.4407199,0.2949833,0.44412532,0.13756886,0.10184898,inf,inf,inf,inf,1,1,1,1,2,0,2,1,6,1,1,1
