timestamp,ref_timestamp,ref_lat,ref_lon,x,y,z,delta_xy[0],delta_xy[1],delta_z,vx,vy,vz,z_deriv,delta_vxy[0],delta_vxy[1],delta_vz,ax,ay,az,heading,delta_heading,ref_alt,dist_bottom,eph,epv,evh,evv,vxy_max,vz_max,hagl_min,hagl_max,xy_valid,z_valid,v_xy_valid,v_z_valid,xy_reset_counter,z_reset_counter,vxy_reset_counter,vz_reset_counter,heading_reset_counter,xy_global,z_global,dist_bottom_valid
85688404,16344161,-33.9385866,18.8741493,-1.8302853,0.90223646,-0.56952703,0.067668386,-0.028586566,0.0,0.008245748,-0.051858023,0.173176,0.14898565,0.109349184,-0.007055687,0.07540404,-0.26265284,-0.045511473,0.0071963873,-2.9880247,-0.034529295,131.26224,0.1,0.28638825,0.4437156,0.13878062,0.10215761,inf,inf,inf,inf,1,1,1,1,2,0,2,1,4,1,1,1
85698407,16344161,-33.9385866,18.8741493,-1.830372,0.9013272,-0.56828195,0.067668386,-0.028586566,0.0,0.0048551257,-0.05039399,0.1723833,0.14803936,0.109349184,-0.007055687,0.07540404,-0.36864895,0.28436282,-0.089372195,-2.985192,-0.034529295,131.26224,0.1,0.28727728,0.44434196,0.13924626,0.10232464,inf,inf,inf,inf,1,1,1,1,2,0,2,1,4,1,1,1
85708411,16344161,-33.9385866,18.8741493,-1.830494,0.90045035,-0.5670322,0.067668386,-0.028586566,0.0,0.0014595985,-0.0483791,0.17136885,0.14688857,0.109349184,-0.007055687,0.07540404,-0.2889915,0.1495862,-0.05769531,-2.9827843,-0.034529295,131.26224,0.1,0.2881718,0.4449702,0.13971463,0.10249183,inf,inf,inf,inf,1,1,1,1,2,0,2,1,4,1,1,1
85718415,16344161,-33.9385866,18.8741493,-1.8306422,0.899589,-0.56577224,0.067668386,-0.028586566,0.0,-0.0006590767,-0.048784427,0.1714819,0.14688183,0.109349184,-0.007055687,0.07540404,-0.19176497,0.011417,0.039041586,-2.9810567,-0.034529295,131.26224,0.1,0.28907186,0.44560033,0.14018707,0.102659054,inf,inf,inf,inf,1,1,1,1,2,0,2,1,4,1,1,1
85728419,16344161,-33.9385866,18.8741493,-1.8308127,0.8987402,-0.56441855,0.067668386,-0.028586566,0.0,-0.0028375918,-0.048238486,0.17063305,0.14601348,0.109349184,-0.007055687,0.07540404,-0.14856517,0.00719838,-0.052437183,-2.9797845,-0.034529295,131.26224,0.1,0.28997746,0.44264925,0.14066137,0.1025138,inf,inf,inf,inf,1,1,1,1,2,0,2,1,4,1,1,1
85738421,16344161,-33.9385866,18.8741493,-1.8309973,0.8978904,-0.5630595,0.067668386,-0.028586566,0.0,-0.003991504,-0.05084214,0.17045918,0.14583164,0.109349184,-0.007055687,0.07540404,-0.13006632,-0.30094543,0.0046101166,-2.978661,-0.034529295,131.26224,0.1,0.2908886,0.44327807,0.14113459,0.102681056,inf,inf,inf,inf,1,1,1,1,2,0,2,1,4,1,1,1
85748426,16344161,-33.9385866,18.8741493,-1.8311971,0.89702356,-0.56169534,0.067668386,-0.028586566,0.0,-0.0060156044,-0.052418206,0.16936693,0.14474224,0.109349184,-0.007055687,0.07540404,-0.22402808,-0.0034866957,-0.11867556,-2.977768,-0.034529295,131.26224,0.1,0.29180536,0.4439088,0.14160496,0.10284834,inf,inf,inf,inf,1,1,1,1,2,0,2,1,4,1,1,1
85758442,16344161,-33.9385866,18.8741493,-1.8314188,0.89616,-0.5603341,0.067668386,-0.028586566,0.0,-0.008418669,-0.052969337,0.16785896,0.14324771,0.109349184,-0.007055687,0.07540404,-0.25988287,-0.12365812,-0.089811884,-2.9771514,-0.034529295,131.26224,0.1,0.29272765,0.44454148,0.14207548,0.10301594,inf,inf,inf,inf,1,1,1,1,2,0,2,1,4,1,1,1
85768432,16344161,-33.9385866,18.8741493,-1.8316647,0.89528877,-0.5589779,0.067668386,-0.028586566,0.0,-0.010792382,-0.055438858,0.16714144,0.1425536,0.109349184,-0.007055687,0.07540404,-0.2053313,-0.21844146,-0.047413893,-2.9769363,-0.034529295,131.26224,0.1,0.29365554,0.44517606,0.14255032,0.103183724,inf,inf,inf,inf,1,1,1,1,2,0,2,1,4,1,1,1
85778436,16344161,-33.9385866,18.8741493,-1.8317069,0.89491063,-0.5582799,0.067668386,-0.028586566,0.0,-0.013547208,-0.05539147,0.16504028,0.13980678,0.109349184,-0.007055687,0.07540404,-0.30192307,0.0025228185,-0.18696035,-2.9770472,-0.034529295,131.26224,0.1,0.27712667,0.44154063,0.13347927,0.100728884,inf,inf,inf,inf,1,1,1,1,2,0,2,1,4,1,1,1
85788439,16344161,-33.9385866,18.8741493,-1.8317835,0.8945304,-0.55757165,0.067668386,-0.028586566,0.0,-0.016085608,-0.054804653,0.16320093,0.13736047,0.109349184,-0.007055687,0.07540404,-0.22177313,0.021597061,-0.14636274,-2.9776986,-0.034529295,131.26224,0.1,0.27795652,0.44215292,0.13394056,0.100895606,inf,inf,inf,inf,1,1,1,1,2,0,2,1,4,1,1,1
85798443,16344161,-33.9385866,18.8741493,-1.8318838,0.89415115,-0.55685097,0.067668386,-0.028586566,0.0,-0.017120829,-0.05400177,0.1616256,0.13521573,0.109349184,-0.007055687,0.07540404,-0.07439731,0.048258927,-0.102768525,-2.9787693,-0.034529295,131.26224,0.1,0.27879176,0.44276705,0.13440247,0.10106271,inf,inf,inf,inf,1,1,1,1,2,0,2,1,4,1,1,1
85808448,16344161,-33.9385866,18.8741493,-1.8319974,0.89378214,-0.5559351,0.067668386,-0.028586566,0.0,-0.017885724,-0.05169186,0.1601173,0.13335706,0.109349184,-0.007055687,0.07540404,-0.103680804,0.18553856,-0.120609894,-2.9799533,-0.034529295,131.26224,0.1,0.27963233,0.4398676,0.1348608,0.100931995,inf,inf,inf,inf,1,1,1,1,2,0,2,1,4,1,1,1
85818450,16344161,-33.9385866,18.8741493,-1.8321204,0.89342636,-0.55500895,0.067668386,-0.028586566,0.0,-0.017465496,-0.050539564,0.15944888,0.1323647,0.109349184,-0.007055687,0.07540404,0.098329425,0.032203097,-0.05010993,-2.9813302,-0.034529295,131.26224,0.1,0.28047827,0.44048053,0.13532047,0.101099186,inf,inf,inf,inf,1,1,1,1,2,0,2,1,4,1,1,1
85828453,16344161,-33.9385866,18.8741493,-1.8322403,0.8930692,-0.5540712,0.067668386,-0.028586566,0.0,-0.016721597,-0.050329145,0.1581415,0.1307591,0.109349184,-0.007055687,0.07540404,0.033543423,0.06346032,-0.12598735,-2.982391,-0.034529295,131.26224,0.1,0.2813296,0.44109535,0.13578285,0.10126633,inf,inf,inf,inf,1,1,1,1,2,0,2,1,4,1,1,1
85838458,16344161,-33.9385866,18.8741493,-1.8323666,0.89270914,-0.5531243,0.067668386,-0.028586566,0.0,-0.017171059,-0.05091593,0.15751015,0.12985404,0.109349184,-0.007055687,0.07540404,0.018972933,-0.16424654,0.0066236667,-2.9830089,-0.034529295,131.26224,0.1,0.2821863,0.44171205,0.13624355,0.10143328,inf,inf,inf,inf,1,1,1,1,2,0,2,1,4,1,1,1
85848460,16344161,-33.9385866,18.8741493,-1.832491,0.89232415,-0.55215853,0.067668386,-0.028586566,0.0,-0.016102528,-0.05378813,0.15771072,0.12980466,0.109349184,-0.007055687,0.07540404,0.030649928,-0.2547285,0.0150850015,-2.9830096,-0.034529295,131.26224,0.1,0.28304845,0.44233066,0.13671085,0.10160071,inf,inf,inf,inf,1,1,1,1,2,0,2,1,4,1,1,1
85858464,16344161,-33.9385866,18.8741493,-1.8326263,0.8919324,-0.55117655,0.067668386,-0.028586566,0.0,-0.017842758,-0.05144466,0.15713118,0.12899765,0.109349184,-0.007055687,0.07540404,-0.13918777,0.24780573,-0.020987194,-2.9824405,-0.034529295,131.26224,0.1,0.283916,0.4429511,0.13718098,0.10176778,inf,inf,inf,inf,1,1,1,1,2,0,2,1,4,1,1,1
85868468,16344161,-33.9385866,18.8741493,-1.8327754,0.8915403,-0.5501836,0.067668386,-0.028586566,0.0,-0.018649668,-0.053509377,0.15593256,0.12759356,0.109349184,-0.007055687,0.07540404,-0.18026182,-0.2703487,-0.13442124,-2.9816153,-0.034529295,131.26224,0.1,0.28478903,0.44357345,0.13765365,0.10193513,inf,inf,inf,inf,1,1,1,1,2,0,2,1,4,1,1,1
85878472,16344161,-33.9385866,18.8741493,-1.8329549,0.89114934,-0.549187,0.067668386,-0.028586566,0.0,-0.022189539,-0.04959189,0.15449843,0.12597507,0.109349184,-0.007055687,0.07540404,-0.26212823,0.500819,-0.107828096,-2.9808998,-0.034529295,131.26224,0.1,0.28566757,0.44419762,0.13812794,0.10210261,inf,inf,inf,inf,1,1,1,1,2,0,2,1,4,1,1,1
85888475,16344161,-33.9385866,18.8741493,-1.8331543,0.8907693,-0.54818296,0.067668386,-0.028586566,0.0,-0.023196245,-0.051602516,0.15404975,0.1253618,0.109349184,-0.007055687,0.07540404,-0.28460535,-0.29553333,-0.00757593,-2.980155,-0.034529295,131.26224,0.1,0.28655156,0.44482374,0.13859867,0.10226988,inf,inf,inf,inf,1,1,1,1,2,0,2,1,4,1,1,1
85898479,16344161,-33.9385866,18.8741493,-1.8333943,0.89038473,-0.5469955,0.067668386,-0.028586566,0.0,-0.026983082,-0.04926424,0.15369472,0.12503378,0.109349184,-0.007055687,0.07540404,-0.05857866,0.25038287,0.00030305237,-2.9796817,-0.034529295,131.26224,0.1,0.2874411,0.4418872,0.1390739,0.10212897,inf,inf,inf,inf,1,1,1,1,2,0,2,1,4,1,1,1
85908482,16344161,-33.9385866,18.8741493,-1.8336477,0.8900042,-0.5457981,0.067668386,-0.028586566,0.0,-0.028867824,-0.049461346,0.15414429,0.1255214,0.109349184,-0.007055687,0.07540404,-0.60142434,0.13766901,0.1109303,-2.9792025,-0.034529295,131.26224,0.1,0.28833616,0.44251204,0.13954724,0.10229627,inf,inf,inf,inf,1,1,1,1,2,0,2,1,4,1,1,1
85918485,16344161,-33.9385866,18.8741493,-1.8339394,0.88963675,-0.5445876,0.067668386,-0.028586566,0.0,-0.02963708,-0.04830731,0.15322925,0.12465507,0.109349184,-0.007055687,0.07540404,0.3704778,-0.16725378,-0.23107165,-2.9792328,-0.034529295,131.26224,0.1,0.28923672,0.44313875,0.14002499,0.1024638,inf,inf,inf,inf,1,1,1,1,2,0,2,1,4,1,1,1
85928489,16344161,-33.9385866,18.8741493,-1.8342419,0.88927907,-0.54338366,0.067668386,-0.028586566,0.0,-0.0343007,-0.04426116,0.15228245,0.12376687,0.109349184,-0.007055687,0.07540404,-0.8091487,0.6520922,0.050471187,-2.9796207,-0.034529295,131.26224,0.1,0.29014286,0.4437674,0.1405055,0.102631375,inf,inf,inf,inf,1,1,1,1,2,0,2,1,4,1,1,1
85938528,16344161,-33.9385866,18.8741493,-1.8345764,0.88894063,-0.54217374,0.067668386,-0.028586566,0.0,-0.033287447,-0.0447978,0.15056887,0.12212162,0.109349184,-0.007055687,0.07540404,0.14431663,-0.031418398,-0.19681367,-2.980553,-0.034529295,131.26224,0.1,0.2910546,0.44439793,0.1409827,0.10279891,inf,inf,inf,inf,1,1,1,1,2,0,2,1,4,1,1,1
85948496,16344161,-33.9385866,18.8741493,-1.8349304,0.8886217,-0.5409747,0.067668386,-0.028586566,0.0,-0.03687206,-0.04209814,0.15020712,0.12183746,0.109349184,-0.007055687,0.07540404,-0.0688703,-0.023465116,-0.09869591,-2.982083,-0.034529295,131.26224,0.1,0.2919719,0.44503036,0.14146557,0.10296659,inf,inf,inf,inf,1,1,1,1,2,0,2,1,4,1,1,1
85958503,16344161,-33.9385866,18.8741493,-1.8353047,0.8883154,-0.53977376,0.067668386,-0.028586566,0.0,-0.038942035,-0.038692173,0.14924288,0.1209597,0.109349184,-0.007055687,0.07540404,-0.40715387,0.60484356,0.10668004,-2.983857,-0.034529295,131.26224,0.1,0.29289484,0.4456647,0.1419481,0.10313445,inf,inf,inf,inf,1,1,1,1,2,0,2,1,4,1,1,1
85968538,16344161,-33.9385866,18.8741493,-1.8356901,0.88802016,-0.5385681,0.067668386,-0.028586566,0.0,-0.038574018,-0.039817497,0.14743641,0.11924819,0.109349184,-0.007055687,0.07540404,-0.20130844,0.028672995,-0.18990612,-2.9858253,-0.034529295,131.26224,0.1,0.29382336,0.44630095,0.14243032,0.103302434,inf,inf,inf,inf,1,1,1,1,2,0,2,1,4,1,1,1
85978519,16344161,-33.9385866,18.8741493,-1.8360456,0.8875742,-0.5380899,0.067668386,-0.028586566,0.0,-0.037996702,-0.038987014,0.145457,0.116632156,0.109349184,-0.007055687,0.07540404,0.55293846,-0.33436865,-0.3033755,-2.987895,-0.034529295,131.26224,0.1,0.27729237,0.4391362,0.13338262,0.10054492,inf,inf,inf,inf,1,1,1,1,2,0,2,1,4,1,1,1
85988515,16344161,-33.9385866,18.8741493,-1.8364091,0.8871396,-0.53760254,0.067668386,-0.028586566,0.0,-0.041436166,-0.036046963,0.14337166,0.11395016,0.109349184,-0.007055687,0.07540404,-0.27485535,0.25021726,-0.14704642,-2.9899483,-0.034529295,131.26224,0.1,0.27812308,0.43974525,0.13384691,0.10071196,inf,inf,inf,inf,1,1,1,1,2,0,2,1,4,1,1,1
85998514,16344161,-33.9385866,18.8741493,-1.83678,0.8867211,-0.5371139,0.067668386,-0.028586566,0.0,-0.04121049,-0.033937838,0.14058214,0.110602334,0.109349184,-0.007055687,0.07540404,-0.41397837,0.6244329,-0.008793613,-2.991948,-0.034529295,131.26224,0.1,0.27895913,0.4403561,0.13431442,0.100878894,inf,inf,inf,inf,1,1,1,1,2,0,2,1,4,1,1,1
86008518,16344161,-33.9385866,18.8741493,-1.8371483,0.88632065,-0.53661305,0.067668386,-0.028586566,0.0,-0.039199997,-0.034490246,0.13813955,0.10763849,0.109349184,-0.007055687,0.07540404,-0.03987548,0.022395104,-0.2988412,-2.9940119,-0.034529295,131.26224,0.1,0.27980056,0.44096884,0.13478024,0.101045854,inf,inf,inf,inf,1,1,1,1,2,0,2,1,4,1,1,1
86018522,16344161,-33.9385866,18.8741493,-1.8375144,0.8859361,-0.53611624,0.067668386,-0.028586566,0.0,-0.036945898,-0.03362236,0.13269368,0.10170693,0.109349184,-0.007055687,0.07540404,0.6039535,-0.3224195,-0.87387,-2.9960933,-0.034529295,131.26224,0.1,0.2806474,0.44158345,0.13524361,0.10121266,inf,inf,inf,inf,1,1,1,1,2,0,2,1,4,1,1,1
86028525,16344161,-33.9385866,18.8741493,-1.8378791,0.88556904,-0.5356502,0.067668386,-0.028586566,0.0,-0.037940502,-0.0314609,0.12856695,0.09712885,0.109349184,-0.007055687,0.07540404,0.34656513,-0.2057585,-0.32267055,-2.9979982,-0.034529295,131.26224,0.1,0.2814996,0.44219992,0.13571051,0.10138,inf,inf,inf,inf,1,1,1,1,2,0,2,1,4,1,1,1
86038528,16344161,-33.9385866,18.8741493,-1.8382467,0.88521206,-0.53519607,0.067668386,-0.028586566,0.0,-0.03938599,-0.028771276,0.12485968,0.09300307,0.109349184,-0.007055687,0.07540404,-0.20622012,0.48023206,-0.30345947,-2.999526,-0.034529295,131.26224,0.1,0.2823572,0.44281825,0.13618076,0.10154693,inf,inf,inf,inf,1,1,1,1,2,0,2,1,4,1,1,1
86048532,16344161,-33.9385866,18.8741493,-1.838617,0.8848854,-0.53476757,0.067668386,-0.028586566,0.0,-0.03954589,-0.023905208,0.11983029,0.08758695,0.109349184,-0.007055687,0.07540404,-0.41808307,1.0757927,-0.1125685,-3.0006502,-0.034529295,131.26224,0.1,0.28322023,0.44343847,0.1366524,0.10171447,inf,inf,inf,inf,1,1,1,1,2,0,2,1,4,1,1,1
86058535,16344161,-33.9385866,18.8741493,-1.8389895,0.88460475,-0.5343496,0.067668386,-0.028586566,0.0,-0.03944383,-0.020166174,0.116463326,0.08386383,0.109349184,-0.007055687,0.07540404,-0.43942875,0.9017061,-0.20113525,-3.0014288,-0.034529295,131.26224,0.1,0.2840887,0.44406056,0.13712119,0.1018816,inf,inf,inf,inf,1,1,1,1,2,0,2,1,4,1,1,1
86068539,16344161,-33.9385866,18.8741493,-1.8393703,0.88438106,-0.53387254,0.067668386,-0.028586566,0.0,-0.039180543,-0.014822056,0.114315554,0.08144715,0.109349184,-0.007055687,0.07540404,-0.13424237,0.66889983,-0.2761923,-3.0020468,-0.034529295,131.26224,0.1,0.28496265,0.44113827,0.13759032,0.101744406,inf,inf,inf,inf,1,1,1,1,2,0,2,1,4,1,1,1
86078543,16344161,-33.9385866,18.8741493,-1.8397676,0.8842213,-0.53339356,0.067668386,-0.028586566,0.0,-0.03968917,-0.009237217,0.11214262,0.07903101,0.109349184,-0.007055687,0.07540404,0.27398002,0.38584784,-0.35014847,-3.0025854,-0.034529295,131.26224,0.1,0.28584203,0.44175914,0.1380571,0.10191188,inf,inf,inf,inf,1,1,1,1,2,0,2,1,4,1,1,1
86088546,16344161,-33.9385866,18.8741493,-1.840181,0.8841272,-0.53290856,0.067668386,-0.028586566,0.0,-0.041979734,-0.003970066,0.110298514,0.07696836,0.109349184,-0.007055687,0.07540404,0.08998054,-0.054640967,-0.538333,-3.0030792,-0.034529295,131.26224,0.1,0.28672692,0.4423819,0.13852973,0.10207947,inf,inf,inf,inf,1,1,1,1,2,0,2,1,4,1,1,1
86098550,16344161,-33.9385866,18.8741493,-1.8406178,0.88409054,-0.53242767,0.067668386,-0.028586566,0.0,-0.043709114,0.0021294134,0.108727776,0.0752028,0.109349184,-0.007055687,0.07540404,0.15327913,0.06690438,-0.20902312,-3.0034397,-0.034529295,131.26224,0.1,0.2876173,0.44300655,0.13900334,0.10224736,inf,inf,inf,inf,1,1,1,1,2,0,2,1,4,1,1,1
86108554,16344161,-33.9385866,18.8741493,-1.8410854,0.8840983,-0.5319457,0.067668386,-0.028586566,0.0,-0.048028667,0.006339953,0.10730132,0.0736042,0.109349184,-0.007055687,0.07540404,-0.18596907,0.20836557,-0.057379533,-3.0035536,-0.034529295,131.26224,0.1,0.28851315,0.44363308,0.13948192,0.10241492,inf,inf,inf,inf,1,1,1,1,2,0,2,1,4,1,1,1
86118557,16344161,-33.9385866,18.8741493,-1.8415818,0.88414055,-0.5314543,0.067668386,-0.028586566,0.0,-0.05155949,0.009917481,0.10714571,0.07329827,0.109349184,-0.007055687,0.07540404,-0.6134306,0.35745037,0.13256261,-3.003254,-0.034529295,131.26224,0.1,0.2894146,0.44426152,0.13995333,0.10258279,inf,inf,inf,inf,1,1,1,1,2,0,2,1,4,1,1,1
86128570,16344161,-33.9385866,18.8741493,-1.8421099,0.8842081,-0.53094596,0.067668386,-0.028586566,0.0,-0.05399806,0.012795553,0.1075533,0.07357674,0.109349184,-0.007055687,0.07540404,-0.5586594,0.6345626,0.35436997,-3.0025198,-0.034529295,131.26224,0.1,0.29032156,0.44489187,0.1404292,0.102750726,inf,inf,inf,inf,1,1,1,1,2,0,2,1,4,1,1,1
86138572,16344161,-33.9385866,18.8741493,-1.8426623,0.88429564,-0.53041846,0.067668386,-0.028586566,0.0,-0.05580001,0.014571349,0.10737957,0.07329406,0.109349184,-0.007055687,0.07540404,-0.45129463,0.69043666,0.23861226,-3.0014277,-0.034529295,131.26224,0.1,0.29123405,0.4455241,0.14091024,0.10291844,inf,inf,inf,inf,1,1,1,1,2,0,2,1,4,1,1,1
86148567,16344161,-33.9385866,18.8741493,-1.8432299,0.88440526,-0.52986705,0.067668386,-0.028586566,0.0,-0.05690739,0.015870422,0.10776325,0.07358807,0.109349184,-0.007055687,0.07540404,-0.41037935,0.3979415,0.036241192,-3.0001621,-0.034529295,131.26224,0.1,0.29215217,0.44615823,0.14138933,0.1030864,inf,inf,inf,inf,1,1,1,1,2,0,2,1,4,1,1,1
86158571,16344161,-33.9385866,18.8741493,-1.8438137,0.88453346,-0.5294145,0.067668386,-0.028586566,0.0,-0.056653522,0.017450798,0.108794905,0.074423574,0.109349184,-0.007055687,0.07540404,0.09081613,0.28796646,0.10370911,-2.99899,-0.034529295,131.26224,0.1,0.29307583,0.44319773,0.14187033,0.102938645,inf,inf,inf,inf,1,1,1,1,2,0,2,1,4,1,1,1
86168574,16344161,-33.9385866,18.8741493,-1.8444086,0.8846806,-0.5289283,0.067668386,-0.028586566,0.0,-0.057058778,0.018059397,0.10938072,0.07483652,0.109349184,-0.007055687,0.07540404,0.34150118,-0.07598934,-0.12764104,-2.9979782,-0.034529295,131.26224,0.1,0.29400513,0.44383055,0.14235483,0.103106886,inf,inf,inf,inf,1,1,1,1,2,0,2,1,4,1,1,1
86178578,16344161,-33.9385866,18.8741493,-1.8448815,0.88478833,-0.52904767,0.067668386,-0.028586566,0.0,-0.05644972,0.018287102,0.110450774,0.075099565,0.109349184,-0.007055687,0.07540404,0.27929205,-0.42808104,-0.08684533,-2.9971387,-0.034529295,131.26224,0.1,0.27747,0.440229,0.13331763,0.100657396,inf,inf,inf,inf,1,1,1,1,2,0,2,1,4,1,1,1
86188582,16344161,-33.9385866,18.8741493,-1.8453509,0.88489646,-0.52911454,0.067668386,-0.028586566,0.0,-0.054926336,0.018367246,0.112811014,0.07670295,0.109349184,-0.007055687,0.07540404,0.45023745,-0.32133308,0.21500108,-2.9964445,-0.034529295,131.26224,0.1,0.2783015,0.44083965,0.13379768,0.10082444,inf,inf,inf,inf,1,1,1,1,2,0,2,1,4,1,1,1
86198585,16344161,-33.9385866,18.8741493,-1.8458151,0.88499826,-0.52912426,0.067668386,-0.028586566,0.0,-0.055100538,0.017376367,0.11477608,0.07795936,0.109349184,-0.007055687,0.07540404,0.14748721,-0.28399503,0.3044636,-2.9959214,-0.034529295,131.26224,0.1,0.27913845,0.44145215,0.13427368,0.100991465,inf,inf,inf,inf,1,1,1,1,2,0,2,1,4,1,1,1
86208589,16344161,-33.9385866,18.8741493,-1.8462751,0.88508326,-0.5290745,0.067668386,-0.028586566,0.0,-0.055118598,0.014922866,0.11708377,0.079604864,0.109349184,-0.007055687,0.07540404,-0.26200363,-0.3417355,0.3261747,-2.9956245,-0.034529295,131.26224,0.1,0.2799808,0.44206652,0.13474894,0.10115868,inf,inf,inf,inf,1,1,1,1,2,0,2,1,4,1,1,1
86218592,16344161,-33.9385866,18.8741493,-1.8467327,0.88513803,-0.52896804,0.067668386,-0.028586566,0.0,-0.053953208,0.011811714,0.119898885,0.08180227,0.109349184,-0.007055687,0.07540404,-0.22847961,-0.20883405,0.59105986,-2.9955533,-0.034529295,131.26224,0.1,0.28082857,0.44268274,0.13522993,0.1013261,inf,inf,inf,inf,1,1,1,1,2,0,2,1,4,1,1,1
86228596,16344161,-33.9385866,18.8741493,-1.8471962,0.8851542,-0.52880293,0.067668386,-0.028586566,0.0,-0.05436903,0.007554703,0.12158525,0.08291399,0.109349184,-0.007055687,0.07540404,-0.22341503,-0.14170417,0.45225462,-2.9956892,-0.034529295,131.26224,0.1,0.28168178,0.44330084,0.13570541,0.10149356,inf,inf,inf,inf,1,1,1,1,2,0,2,1,4,1,1,1
86238600,16344161,-33.9385866,18.8741493,-1.8476604,0.88512546,-0.52876765,0.067668386,-0.028586566,0.0,-0.05420708,0.0022012445,0.12334571,0.08395297,0.109349184,-0.007055687,0.07540404,-0.3814816,-0.28869888,0.24901628,-2.9959738,-0.034529295,131.26224,0.1,0.2825404,0.44039264,0.1361771,0.101360396,inf,inf,inf,inf,1,1,1,1,2,0,2,1,4,1,1,1
86248603,16344161,-33.9385866,18.8741493,-1.84813,0.8850454,-0.5286725,0.067668386,-0.028586566,0.0,-0.05259561,-0.0032898937,0.12531278,0.08524636,0.109349184,-0.007055687,0.07540404,0.16150758,-0.352592,0.18097275,-2.9963713,-0.034529295,131.26224,0.1,0.28340447,0.44100952,0.13664973,0.10152813,inf,inf,inf,inf,1,1,1,1,2,0,2,1,4,1,1,1
86258607,16344161,-33.9385866,18.8741493,-1.8486048,0.8849102,-0.52852225,0.067668386,-0.028586566,0.0,-0.052542478,-0.008873968,0.1264563,0.085762575,0.109349184,-0.007055687,0.07540404,0.3762029,-0.31639603,0.031997446,-2.9968176,-0.034529295,131.26224,0.1,0.284274,0.44162834,0.13712199,0.101695925,inf,inf,inf,inf,1,1,1,1,2,0,2,1,4,1,1,1
86268610,16344161,-33.9385866,18.8741493,-1.8490751,0.88472277,-0.5283169,0.067668386,-0.028586566,0.0,-0.051824424,-0.015405997,0.1281048,0.08682846,0.109349184,-0.007055687,0.07540404,0.25586557,-0.68656355,-0.084434085,-2.997254,-0.034529295,131.26224,0.1,0.28514898,0.442249,0.137594,0.10186379,inf,inf,inf,inf,1,1,1,1,2,0,2,1,4,1,1,1
86278614,16344161,-33.9385866,18.8741493,-1.8495418,0.8844801,-0.5280557,0.067668386,-0.028586566,0.0,-0.050618242,-0.021490946,0.13077094,0.08895485,0.109349184,-0.007055687,0.07540404,0.3909246,-0.88882244,0.08525172,-2.9976532,-0.034529295,131.26224,0.1,0.28602946,0.44287157,0.13806641,0.10203156,inf,inf,inf,inf,1,1,1,1,2,0,2,1,4,1,1,1
86288617,16344161,-33.9385866,18.8741493,-1.8500104,0.884181,-0.5277417,0.067668386,-0.028586566,0.0,-0.05127385,-0.026620211,0.13267879,0.090363935,0.109349184,-0.007055687,0.07540404,0.21281673,-0.7111394,0.18671268,-2.9980304,-0.034529295,131.26224,0.1,0.2869154,0.44349602,0.13853455,0.10219928,inf,inf,inf,inf,1,1,1,1,2,0,2,1,4,1,1,1
86298621,16344161,-33.9385866,18.8741493,-1.8504797,0.88382864,-0.5273765,0.067668386,-0.028586566,0.0,-0.052549496,-0.032575138,0.1344692,0.09169522,0.109349184,-0.007055687,0.07540404,-0.37593076,-0.79855555,0.22533116,-2.998314,-0.034529295,131.26224,0.1,0.2878068,0.44412234,0.1390015,0.10236711,inf,inf,inf,inf,1,1,1,1,2,0,2,1,4,1,1,1
86308649,16344161,-33.9385866,18.8741493,-1.8509545,0.88342446,-0.5269562,0.067668386,-0.028586566,0.0,-0.051631138,-0.037121024,0.13714655,0.09395143,0.109349184,-0.007055687,0.07540404,-0.22064827,-0.63189816,0.42863014,-2.9985406,-0.034529295,131.26224,0.1,0.2887037,0.44475055,0.13947088,0.10253485,inf,inf,inf,inf,1,1,1,1,2,0,2,1,4,1,1,1
86318636,16344161,-33.9385866,18.8741493,-1.8514309,0.88297707,-0.5264888,0.067668386,-0.028586566,0.0,-0.05146773,-0.040002815,0.13932598,0.09574634,0.109349184,-0.007055687,0.07540404,-0.09325237,-0.090745874,0.4959263,-2.9987342,-0.034529295,131.26224,0.1,0.2896061,0.4453807,0.13993843,0.102702715,inf,inf,inf,inf,1,1,1,1,2,0,2,1,4,1,1,1
86328632,16344161,-33.9385866,18.8741493,-1.8519106,0.8824968,-0.5261632,0.067668386,-0.028586566,0.0,-0.052118454,-0.04298812,0.13969223,0.09557038,0.109349184,-0.007055687,0.07540404,-0.29194075,0.09492871,0.12058165,-2.9989617,-0.034529295,131.26224,0.1,0.29051402,0.4424348,0.14040428,0.102558844,inf,inf,inf,inf,1,1,1,1,2,0,2,1,4,1,1,1
86338635,16344161,-33.9385866,18.8741493,-1.8523947,0.8819959,-0.5257947,0.067668386,-0.028586566,0.0,-0.050724626,-0.044923183,0.1401284,0.09550661,0.109349184,-0.007055687,0.07540404,0.10354993,0.07924678,0.035080206,-2.9992712,-0.034529295,131.26224,0.1,0.29142743,0.44306365,0.14087254,0.10272678,inf,inf,inf,inf,1,1,1,1,2,0,2,1,4,1,1,1
86348639,16344161,-33.9385866,18.8741493,-1.8528839,0.8814839,-0.5253905,0.067668386,-0.028586566,0.0,-0.05069873,-0.045716345,0.14019613,0.0951151,0.109349184,-0.007055687,0.07540404,0.33549872,0.12838632,0.059748895,-2.9998178,-0.034529295,131.26224,0.1,0.29234636,0.44369438,0.14133856,0.10289487,inf,inf,inf,inf,1,1,1,1,2,0,2,1,4,1,1,1
86358642,16344161,-33.9385866,18.8741493,-1.8533714,0.8809653,-0.5249448,0.067668386,-0.028586566,0.0,-0.05057448,-0.047380242,0.14126167,0.09576048,0.109349184,-0.007055687,0.07540404,0.19352143,-0.14521617,0.060780898,-3.0005836,-0.034529295,131.26224,0.1,0.29327083,0.44432703,0.14180005,0.10306293,inf,inf,inf,inf,1,1,1,1,2,0,2,1,4,1,1,1
86368646,16344161,-33.9385866,18.8741493,-1.8538475,0.8804364,-0.524447,0.067668386,-0.028586566,0.0,-0.048461348,-0.0494501,0.14332585,0.09744211,0.109349184,-0.007055687,0.07540404,0.26558775,-0.47844484,0.022087866,-3.0013688,-0.034529295,131.26224,0.1,0.2942008,0.4449616,0.14226389,0.103231,inf,inf,inf,inf,1,1,1,1,2,0,2,1,4,1,1,1
86378650,16344161,-33.9385866,18.8741493,-1.8543173,0.879889,-0.523911,0.067668386,-0.028586566,0.0,-0.048266266,-0.051722456,0.14398731,0.09775687,0.109349184,-0.007055687,0.07540404,0.15047292,-0.58747035,0.15434982,-3.0019822,-0.034529295,131.26224,0.1,0.2951363,0.4455981,0.142727,0.10339889,inf,inf,inf,inf,1,1,1,1,2,0,2,1,4,1,1,1
86388655,16344161,-33.9385866,18.8741493,-1.8546166,0.8796448,-0.5238305,0.067668386,-0.028586566,0.0,-0.04885814,-0.055724587,0.14356086,0.09651446,0.109349184,-0.007055687,0.07540404,-0.23231378,-0.7485744,0.0716133,-3.002204,-0.034529295,131.26224,0.1,0.2783867,0.44193503,0.13358012,0.100927286,inf,inf,inf,inf,1,1,1,1,2,0,2,1,4,1,1,1
86398657,16344161,-33.9385866,18.8741493,-1.8549168,0.8793549,-0.5236997,0.067668386,-0.028586566,0.0,-0.04748838,-0.05878575,0.14493442,0.0971273,0.109349184,-0.007055687,0.07540404,-0.15353955,-0.56438047,0.24168114,-3.001976,-0.034529295,131.26224,0.1,0.27922317,0.4425491,0.13403189,0.10109389,inf,inf,inf,inf,1,1,1,1,2,0,2,1,4,1,1,1
86408663,16344161,-33.9385866,18.8741493,-1.8552189,0.87902236,-0.5235121,0.067668386,-0.028586566,0.0,-0.04645599,-0.06094782,0.14631549,0.09780091,0.109349184,-0.007055687,0.07540404,0.036375694,-0.14138296,0.30959785,-3.0014062,-0.034529295,131.26224,0.1,0.28006494,0.443165,0.13448395,0.10126055,inf,inf,inf,inf,1,1,1,1,2,0,2,1,4,1,1,1
86418664,16344161,-33.9385866,18.8741493,-1.8555202,0.87865424,-0.5235007,0.067668386,-0.028586566,0.0,-0.046178017,-0.063186064,0.14507283,0.0956801,0.109349184,-0.007055687,0.07540404,-0.08003017,0.10199696,0.009051585,-3.0006611,-0.034529295,131.26224,0.1,0.28091198,0.44025788,0.13493581,0.1011281,inf,inf,inf,inf,1,1,1,1,2,0,2,1,4,1,1,1
86428668,16344161,-33.9385866,18.8741493,-1.8558216,0.87826174,-0.52345175,0.067668386,-0.028586566,0.0,-0.044288367,-0.06426515,0.14329065,0.09307872,0.109349184,-0.007055687,0.07540404,0.24536398,0.22520879,-0.18521193,-2.9998236,-0.034529295,131.26224,0.1,0.28176436,0.44087258,0.13539171,0.10129487,inf,inf,inf,inf,1,1,1,1,2,0,2,1,4,1,1,1
86438671,16344161,-33.9385866,18.8741493,-1.8561183,0.87784636,-0.52337176,0.067668386,-0.028586566,0.0,-0.043139357,-0.06559429,0.14229435,0.09132005,0.109349184,-0.007055687,0.07540404,0.33455518,0.34260863,-0.030012574,-2.998944,-0.034529295,131.26224,0.1,0.28262207,0.44148916,0.13584639,0.10146173,inf,inf,inf,inf,1,1,1,1,2,0,2,1,4,1,1,1
86448718,16344161,-33.9385866,18.8741493,-1.8564099,0.8774071,-0.5232454,0.067668386,-0.028586566,0.0,-0.042247824,-0.06797801,0.1416754,0.08999334,0.109349184,-0.007055687,0.07540404,0.18660142,0.040263485,-0.097604915,-2.998095,-0.034529295,131.26224,0.1,0.28348508,0.44210762,0.13629793,0.1016286,inf,inf,inf,inf,1,1,1,1,2,0,2,1,4,1,1,1
86458696,16344161,-33.9385866,18.8741493,-1.8566926,0.87695456,-0.52308285,0.067668386,-0.028586566,0.0,-0.04093097,-0.06984287,0.14202742,0.0896902,0.109349184,-0.007055687,0.07540404,0.18828861,-0.32055324,-0.12402901,-2.9972868,-0.034529295,131.26224,0.1,0.2843535,0.44272798,0.13675319,0.10179565,inf,inf,inf,inf,1,1,1,1,2,0,2,1,4,1,1,1
86468681,16344161,-33.9385866,18.8741493,-1.8569715,0.87648606,-0.5228834,0.067668386,-0.028586566,0.0,-0.040713996,-0.071315534,0.14100759,0.088065654,0.109349184,-0.007055687,0.07540404,-0.026229968,-0.5978168,-0.12188837,-2.9963875,-0.034529295,131.26224,0.1,0.28522724,0.4433502,0.13720977,0.10196258,inf,inf,inf,inf,1,1,1,1,2,0,2,1,4,1,1,1
86478685,16344161,-33.9385866,18.8741493,-1.8572578,0.87599546,-0.5226533,0.067668386,-0.028586566,0.0,-0.041275434,-0.0735522,0.13986091,0.086362906,0.109349184,-0.007055687,0.07540404,-0.15399478,-0.8381406,-0.023121309,-2.9953125,-0.034529295,131.26224,0.1,0.28610635,0.44397432,0.13766432,0.10212983,inf,inf,inf,inf,1,1,1,1,2,0,2,1,4,1,1,1
86488740,16344161,-33.9385866,18.8741493,-1.8575542,0.8754782,-0.5223822,0.067668386,-0.028586566,0.0,-0.041428775,-0.07437719,0.13945314,0.08544558,0.109349184,-0.007055687,0.07540404,-0.17372124,-0.61893433,-0.008371262,-2.9939952,-0.034529295,131.26224,0.1,0.28699085,0.44460028,0.13811989,0.10229718,inf,inf,inf,inf,1,1,1,1,2,0,2,1,4,1,1,1
86498689,16344161,-33.9385866,18.8741493,-1.8578563,0.87495345,-0.52221984,0.067668386,-0.028586566,0.0,-0.042075846,-0.073695265,0.1397624,0.08515769,0.109349184,-0.007055687,0.07540404,-0.2080124,-0.10435998,0.110749364,-2.9925435,-0.034529295,131.26224,0.1,0.28788078,0.441669,0.13858345,0.1021567,inf,inf,inf,inf,1,1,1,1,2,0,2,1,4,1,1,1
86508696,16344161,-33.9385866,18.8741493,-1.8581779,0.8744125,-0.5220149,0.067668386,-0.028586566,0.0,-0.042379905,-0.07333926,0.13826284,0.08310996,0.109349184,-0.007055687,0.07540404,0.11414147,0.3419611,-0.0063820793,-2.991026,-0.034529295,131.26224,0.1,0.2887761,0.4422937,0.13904747,0.10232443,inf,inf,inf,inf,1,1,1,1,2,0,2,1,4,1,1,1
86518699,16344161,-33.9385866,18.8741493,-1.8585093,0.87385875,-0.52178365,0.067668386,-0.028586566,0.0,-0.04307836,-0.07395953,0.13624586,0.08059177,0.109349184,-0.007055687,0.07540404,0.07743085,0.5117221,-0.21540473,-2.9893909,-0.034529295,131.26224,0.1,0.2896769,0.44292033,0.13951369,0.10249218,inf,inf,inf,inf,1,1,1,1,2,0,2,1,4,1,1,1
86528705,16344161,-33.9385866,18.8741493,-1.858848,0.87329525,-0.5215295,0.067668386,-0.028586566,0.0,-0.043357316,-0.074053906,0.13520806,0.07909797,0.109349184,-0.007055687,0.07540404,0.02238112,0.6012711,-0.05922208,-2.9876232,-0.034529295,131.26224,0.1,0.2905832,0.4435489,0.13997678,0.102659985,inf,inf,inf,inf,1,1,1,1,2,0,2,1,4,1,1,1
86538707,16344161,-33.9385866,18.8741493,-1.8591934,0.8727248,-0.52124465,0.067668386,-0.028586566,0.0,-0.04307026,-0.07512029,0.13518897,0.07866634,0.109349184,-0.007055687,0.07540404,0.17139965,0.35656112,0.094057016,-2.9857721,-0.034529295,131.26224,0.1,0.2914949,0.44417933,0.14043656,0.10282777,inf,inf,inf,inf,1,1,1,1,2,0,2,1,4,1,1,1
86548710,16344161,-33.9385866,18.8741493,-1.8595326,0.87215286,-0.52091897,0.067668386,-0.028586566,0.0,-0.042521786,-0.075884126,0.13505803,0.07816456,0.109349184,-0.007055687,0.07540404,-0.069326945,-0.12148552,-0.10161233,-2.9840026,-0.034529295,131.26224,0.1,0.2924121,0.44481164,0.1409027,0.10299563,inf,inf,inf,inf,1,1,1,1,2,0,2,1,4,1,1,1
86558714,16344161,-33.9385866,18.8741493,-1.8598628,0.8715886,-0.5205582,0.067668386,-0.028586566,0.0,-0.04122191,-0.07544764,0.13536976,0.07814563,0.109349184,-0.007055687,0.07540404,-0.16283956,-0.5635067,0.008326189,-2.982394,-0.034529295,131.26224,0.1,0.29333478,0.4454459,0.14137332,0.10316326,inf,inf,inf,inf,1,1,1,1,2,0,2,1,4,1,1,1
86568717,16344161,-33.9385866,18.8741493,-1.8601922,0.8710279,-0.5201681,0.067668386,-0.028586566,0.0,-0.039961506,-0.0745578,0.1344447,0.07692835,0.109349184,-0.007055687,0.07540404,0.12914087,-0.57281154,-0.03351731,-2.9810233,-0.034529295,131.26224,0.1,0.29426298,0.44608206,0.1418373,0.10333118,inf,inf,inf,inf,1,1,1,1,2,0,2,1,4,1,1,1
86578721,16344161,-33.9385866,18.8741493,-1.8605161,0.87047297,-0.51975226,0.067668386,-0.028586566,0.0,-0.039774116,-0.07311829,0.1335522,0.075780526,0.109349184,-0.007055687,0.07540404,-0.08379553,-0.4521156,-0.079924166,-2.9799786,-0.034529295,131.26224,0.1,0.2951967,0.44672015,0.14230205,0.10349912,inf,inf,inf,inf,1,1,1,1,2,0,2,1,4,1,1,1
86588742,16344161,-33.9385866,18.8741493,-1.8606364,0.8699781,-0.52006656,0.067668386,-0.028586566,0.0,-0.037862174,-0.070467345,0.13261,0.07384358,0.109349184,-0.007055687,0.07540404,0.06989709,-0.10565701,-0.09490638,-2.9792993,-0.034529295,131.26224,0.1,0.27848557,0.43951955,0.13323501,0.10072476,inf,inf,inf,inf,1,1,1,1,2,0,2,1,4,1,1,1
86598730,16344161,-33.9385866,18.8741493,-1.8607574,0.8694968,-0.5203422,0.067668386,-0.028586566,0.0,-0.0359617,-0.066358365,0.13148081,0.07178763,0.109349184,-0.007055687,0.07540404,0.51891214,0.73464984,0.007823099,-2.9789507,-0.034529295,131.26224,0.1,0.27932096,0.44013023,0.13369758,0.100891896,inf,inf,inf,inf,1,1,1,1,2,0,2,1,4,1,1,1
86608732,16344161,-33.9385866,18.8741493,-1.8608731,0.8690334,-0.52057534,0.067668386,-0.028586566,0.0,-0.035276465,-0.063322745,0.12968981,0.06913486,0.109349184,-0.007055687,0.07540404,0.3053574,1.1035857,-0.08877415,-2.9788275,-0.034529295,131.26224,0.1,0.28016165,0.4407428,0.13415803,0.10105895,inf,inf,inf,inf,1,1,1,1,2,0,2,1,4,1,1,1
86618735,16344161,-33.9385866,18.8741493,-1.8609781,0.86859304,-0.52076465,0.067668386,-0.028586566,0.0,-0.033155616,-0.06111519,0.12933962,0.06798584,0.109349184,-0.007055687,0.07540404,0.21704414,0.9436327,-0.013792443,-2.978824,-0.034529295,131.26224,0.1,0.28100765,0.4413572,0.13461958,0.101226054,inf,inf,inf,inf,1,1,1,1,2,0,2,1,4,1,1,1
86628739,16344161,-33.9385866,18.8741493,-1.8610694,0.8681733,-0.52090704,0.067668386,-0.028586566,0.0,-0.030184956,-0.05936649,0.12938684,0.06729433,0.109349184,-0.007055687,0.07540404,0.40991083,0.64426225,0.12191253,-2.978792,-0.034529295,131.26224,0.1,0.28185898,0.44197348,0.13507557,0.10139317,inf,inf,inf,inf,1,1,1,1,2,0,2,1,4,1,1,1
86638742,16344161,-33.9385866,18.8741493,-1.8611395,0.8677687,-0.52100265,0.067668386,-0.028586566,0.0,-0.028156374,-0.05915056,0.1287917,0.06601855,0.109349184,-0.007055687,0.07540404,0.11707601,0.064306244,0.047147404,-2.9785602,-0.034529295,131.26224,0.1,0.28271562,0.44259164,0.13553777,0.10156044,inf,inf,inf,inf,1,1,1,1,2,0,2,1,4,1,1,1
86648746,16344161,-33.9385866,18.8741493,-1.8611814,0.86737806,-0.52105135,0.067668386,-0.028586566,0.0,-0.024480633,-0.058519557,0.1283999,0.06500156,0.109349184,-0.007055687,0.07540404,-0.04907112,-0.513055,-0.0964772,-2.9781103,-0.034529295,131.26224,0.1,0.28357762,0.44321164,0.136002,0.10172758,inf,inf,inf,inf,1,1,1,1,2,0,2,1,4,1,1,1
86658749,16344161,-33.9385866,18.8741493,-1.8611963,0.86700666,-0.5210636,0.067668386,-0.028586566,0.0,-0.019887896,-0.0559391,0.12719706,0.06322738,0.109349184,-0.007055687,0.07540404,0.29242247,-0.6545765,-0.11548785,-2.9775224,-0.034529295,131.26224,0.1,0.284445,0.44383356,0.1364659,0.101895005,inf,inf,inf,inf,1,1,1,1,2,0,2,1,4,1,1,1
86668753,16344161,-33.9385866,18.8741493,-1.8611873,0.86665326,-0.5210477,0.067668386,-0.028586566,0.0,-0.017028622,-0.052816916,0.12564301,0.061153106,0.109349184,-0.007055687,0.07540404,0.32709634,-0.38137034,-0.044716373,-2.9767976,-0.034529295,131.26224,0.1,0.28531772,0.44445735,0.13692361,0.10206249,inf,inf,inf,inf,1,1,1,1,2,0,2,1,4,1,1,1
86678757,16344161,-33.9385866,18.8741493,-1.8611583,0.8663137,-0.5212127,0.067668386,-0.028586566,0.0,-0.014581659,-0.050321247,0.12449892,0.059321076,0.109349184,-0.007055687,0.07540404,0.24824508,-0.03758927,-0.17480735,-2.9760349,-0.034529295,131.26224,0.1,0.2861958,0.44152728,0.1373911,0.10192386,inf,inf,inf,inf,1,1,1,1,2,0,2,1,4,1,1,1
86688760,16344161,-33.9385866,18.8741493,-1.8611121,0.8659872,-0.5213364,0.067668386,-0.028586566,0.0,-0.0110978745,-0.0467048,0.123873174,0.058064606,0.109349184,-0.007055687,0.07540404,0.5709399,0.6267635,-0.16479331,-2.9751883,-0.034529295,131.26224,0.1,0.28707933,0.44214982,0.13786133,0.10209154,inf,inf,inf,inf,1,1,1,1,2,0,2,1,4,1,1,1
86698764,16344161,-33.9385866,18.8741493,-1.8610489,0.8656638,-0.52142304,0.067668386,-0.028586566,0.0,-0.009227831,-0.04585758,0.12322234,0.05683768,0.109349184,-0.007055687,0.07540404,0.5117734,0.95874864,-0.002850427,-2.974248,-0.034529295,131.26224,0.1,0.2879683,0.4427742,0.13832854,0.10225924,inf,inf,inf,inf,1,1,1,1,2,0,2,1,4,1,1,1
86708768,16344161,-33.9385866,18.8741493,-1.860969,0.8653364,-0.5214721,0.067668386,-0.028586566,0.0,-0.0073355823,-0.046408325,0.12207925,0.05517131,0.109349184,-0.007055687,0.07540404,0.3233042,0.8949819,-0.07182426,-2.973076,-0.034529295,131.26224,0.1,0.2888627,0.44340053,0.1387925,0.10242703,inf,inf,inf,inf,1,1,1,1,2,0,2,1,4,1,1,1
86718771,16344161,-33.9385866,18.8741493,-1.8608754,0.86500955,-0.5214873,0.067668386,-0.028586566,0.0,-0.005896039,-0.04733743,0.12133012,0.053949174,0.109349184,-0.007055687,0.07540404,0.12500036,0.36644694,-0.011514966,-2.971656,-0.034529295,131.26224,0.1,0.28976256,0.44402876,0.13925757,0.102594815,inf,inf,inf,inf,1,1,1,1,2,0,2,1,4,1,1,1
86728774,16344161,-33.9385866,18.8741493,-1.8607695,0.8646772,-0.5214635,0.067668386,-0.028586566,0.0,-0.004547491,-0.048990242,0.12188074,0.05407551,0.109349184,-0.007055687,0.07540404,-0.07974917,-0.18635848,0.23861496,-2.9701455,-0.034529295,131.26224,0.1,0.29066783,0.44465888,0.1397215,0.10276286,inf,inf,inf,inf,1,1,1,1,2,0,2,1,4,1,1,1
86738778,16344161,-33.9385866,18.8741493,-1.8606511,0.86434567,-0.52139467,0.067668386,-0.028586566,0.0,-0.0025377565,-0.04981061,0.12208388,0.053900823,0.109349184,-0.007055687,0.07540404,-0.09736387,-0.8190635,0.21042404,-2.9686158,-0.034529295,131.26224,0.1,0.29157856,0.4452909,0.1401908,0.1029309,inf,inf,inf,inf,1,1,1,1,2,0,2,1,4,1,1,1
86748781,16344161,-33.9385866,18.8741493,-1.8605248,0.8640145,-0.5212789,0.067668386,-0.028586566,0.0,-0.0019566661,-0.04985164,0.12218925,0.053673267,0.109349184,-0.007055687,0.07540404,-0.27946877,-1.1006207,-0.010226238,-2.9671345,-0.034529295,131.26224,0.1,0.29249477,0.44592485,0.14066076,0.10309909,inf,inf,inf,inf,1,1,1,1,2,0,2,1,4,1,1,1
86758785,16344161,-33.9385866,18.8741493,-1.8604003,0.86368614,-0.5214564,0.067668386,-0.028586566,0.0,-0.001212789,-0.04743707,0.121730015,0.05259047,0.109349184,-0.007055687,0.07540404,-0.1634477,-0.6562081,-0.06300619,-2.965748,-0.034529295,131.26224,0.1,0.29341647,0.4429697,0.14113116,0.10295218,inf,inf,inf,inf,1,1,1,1,2,0,2,1,4,1,1,1
86768793,16344161,-33.9385866,18.8741493,-1.860287,0.8633703,-0.5215939,0.067668386,-0.028586566,0.0,-0.00073806406,-0.043918617,0.12053821,0.050831143,0.109349184,-0.007055687,0.07540404,0.28936628,0.0079412,-0.07903064,-2.96461,-0.034529295,131.26224,0.1,0.2943437,0.44360232,0.14160168,0.10312082,inf,inf,inf,inf,1,1,1,1,2,0,2,1,4,1,1,1
86778797,16344161,-33.9385866,18.8741493,-1.8599375,0.8630305,-0.52238363,0.067668386,-0.028586566,0.0,-0.0023013542,-0.041296992,0.11891458,0.04797938,0.109349184,-0.007055687,0.07540404,0.036531545,0.63144064,-0.32404888,-2.963697,-0.034529295,131.26224,0.1,0.2778137,0.44000506,0.13266426,0.100670405,inf,inf,inf,inf,1,1,1,1,2,0,2,1,4,1,1,1
86788795,16344161,-33.9385866,18.8741493,-1.859606,0.86269766,-0.52312034,0.067668386,-0.028586566,0.0,-0.001801478,-0.039030384,0.118361525,0.046280786,0.109349184,-0.007055687,0.07540404,0.2350867,1.2339351,-0.07934784,-2.962908,-0.034529295,131.26224,0.1,0.27864406,0.4406155,0.13311896,0.100837655,inf,inf,inf,inf,1,1,1,1,2,0,2,1,4,1,1,1
86798799,16344161,-33.9385866,18.8741493,-1.8592863,0.86237556,-0.52380043,0.067668386,-0.028586566,0.0,-0.002001635,-0.03800566,0.11737213,0.044225674,0.109349184,-0.007055687,0.07540404,0.21411505,1.2546777,-0.021225894,-2.9622216,-0.034529295,131.26224,0.1,0.27947968,0.44122782,0.13357297,0.101005055,inf,inf,inf,inf,1,1,1,1,2,0,2,1,4,1,1,1
86808803,16344161,-33.9385866,18.8741493,-1.8589796,0.8620682,-0.5244265,0.067668386,-0.028586566,0.0,-0.0036890383,-0.037757434,0.11598929,0.041853473,0.109349184,-0.007055687,0.07540404,-0.27357388,0.74155486,-0.15545402,-2.9616663,-0.034529295,131.26224,0.1,0.28032053,0.441842,0.13403024,0.10117227,inf,inf,inf,inf,1,1,1,1,2,0,2,1,4,1,1,1
86818806,16344161,-33.9385866,18.8741493,-1.8586857,0.86177504,-0.52499807,0.067668386,-0.028586566,0.0,-0.0032039487,-0.038060743,0.1168408,0.041789472,0.109349184,-0.007055687,0.07540404,-0.2605619,-0.0012994967,0.23622695,-2.961249,-0.034529295,131.26224,0.1,0.2811667,0.44245803,0.13448745,0.10133972,inf,inf,inf,inf,1,1,1,1,2,0,2,1,4,1,1,1
86828810,16344161,-33.9385866,18.8741493,-1.8584031,0.8614935,-0.5255076,0.067668386,-0.028586566,0.0,-0.0028070589,-0.038227767,0.11670777,0.040811844,0.109349184,-0.007055687,0.07540404,-0.09663268,-0.67567676,0.19148119,-2.9611685,-0.034529295,131.26224,0.1,0.28201815,0.44307593,0.13494816,0.10150733,inf,inf,inf,inf,1,1,1,1,2,0,2,1,4,1,1,1
86838813,16344161,-33.9385866,18.8741493,-1.8581303,0.86123085,-0.52595633,0.067668386,-0.028586566,0.0,-0.00414716,-0.036645524,0.116406165,0.039733894,0.109349184,-0.007055687,0.07540404,-0.4846219,-1.0814772,-0.045161728,-2.961503,-0.034529295,131.26224,0.1,0.28287494,0.44369572,0.13541104,0.10167507,inf,inf,inf,inf,1,1,1,1,2,0,2,1,4,1,1,1
86848817,16344161,-33.9385866,18.8741493,-1.8578728,0.8609876,-0.52657527,0.067668386,-0.028586566,0.0,-0.003391193,-0.034517948,0.11490194,0.03730174,0.109349184,-0.007055687,0.07540404,-0.20052978,-1.1578422,-0.088532574,-2.9621468,-0.034529295,131.26224,0.1,0.28373706,0.44077978,0.1358731,0.10154024,inf,inf,inf,inf,1,1,1,1,2,0,2,1,4,1,1,1
86858821,16344161,-33.9385866,18.8741493,-1.8576256,0.86075735,-0.5271503,0.067668386,-0.028586566,0.0,-0.0035708759,-0.03190376,0.11319739,0.03474188,0.109349184,-0.007055687,0.07540404,-0.16658735,-0.7478545,-0.063053705,-2.9628801,-0.034529295,131.26224,0.1,0.28460452,0.44139838,0.13633382,0.101708256,inf,inf,inf,inf,1,1,1,1,2,0,2,1,4,1,1,1
86868824,16344161,-33.9385866,18.8741493,-1.8573914,0.86054385,-0.5276829,0.067668386,-0.028586566,0.0,-0.004102546,-0.02868396,0.11176965,0.032528605,0.109349184,-0.007055687,0.07540404,-0.19741137,-0.23865585,0.009520557,-2.9635298,-0.034529295,131.26224,0.1,0.28547737,0.44201884,0.13679565,0.10187605,inf,inf,inf,inf,1,1,1,1,2,0,2,1,4,1,1,1
86878831,16344161,-33.9385866,18.8741493,-1.8571638,0.8603388,-0.5281663,0.067668386,-0.028586566,0.0,-0.0048189303,-0.026872195,0.11150041,0.03154076,0.109349184,-0.007055687,0.07540404,-0.581175,0.23868199,0.117471844,-2.963996,-0.034529295,131.26224,0.1,0.28635556,0.44264117,0.13726017,0.102043696,inf,inf,inf,inf,1,1,1,1,2,0,2,1,4,1,1,1
86888870,16344161,-33.9385866,18.8741493,-1.8569403,0.86013836,-0.5285952,0.067668386,-0.028586566,0.0,-0.0041874824,-0.025693495,0.11154465,0.030930813,0.109349184,-0.007055687,0.07540404,-0.676874,0.4943088,0.2807637,-2.9642186,-0.034529295,131.26224,0.1,0.28723916,0.44326538,0.13772394,0.102211446,inf,inf,inf,inf,1,1,1,1,2,0,2,1,4,1,1,1
86898849,16344161,-33.9385866,18.8741493,-1.8567232,0.85994375,-0.52898306,0.067668386,-0.028586566,0.0,-0.0044243815,-0.025774693,0.11090993,0.029703477,0.109349184,-0.007055687,0.07540404,-0.7856612,0.33077168,0.31609893,-2.9641354,-0.034529295,131.26224,0.1,0.28812814,0.44389153,0.13818352,0.10237909,inf,inf,inf,inf,1,1,1,1,2,0,2,1,4,1,1,1
86908842,16344161,-33.9385866,18.8741493,-1.8565097,0.85974884,-0.5293206,0.067668386,-0.028586566,0.0,-0.0040136245,-0.02599561,0.11118794,0.029448308,0.109349184,-0.007055687,0.07540404,-0.89495724,0.14560571,0.45706984,-2.9637506,-0.034529295,131.26224,0.1,0.28902254,0.44451955,0.13864511,0.102546975,inf,inf,inf,inf,1,1,1,1,2,0,2,1,4,1,1,1
86918842,16344161,-33.9385866,18.8741493,-1.856295,0.8595571,-0.52960664,0.067668386,-0.028586566,0.0,-0.0023663759,-0.027185563,0.11135066,0.029134559,0.109349184,-0.007055687,0.07540404,-0.7610107,-0.4934938,0.48511344,-2.9631133,-0.034529295,131.26224,0.1,0.28992233,0.44514945,0.1391077,0.10271482,inf,inf,inf,inf,1,1,1,1,2,0,2,1,4,1,1,1
86928846,16344161,-33.9385866,18.8741493,-1.856081,0.85936654,-0.52984476,0.067668386,-0.028586566,0.0,-0.00073299604,-0.02884294,0.11104072,0.028402932,0.109349184,-0.007055687,0.07540404,-0.4127693,-1.2726951,0.4318832,-2.9622517,-0.034529295,131.26224,0.1,0.29082754,0.44578126,0.13957284,0.10288302,inf,inf,inf,inf,1,1,1,1,2,0,2,1,4,1,1,1
86938849,16344161,-33.9385866,18.8741493,-1.8558604,0.8591787,-0.5301788,0.067668386,-0.028586566,0.0,0.0012211828,-0.029286934,0.11042706,0.027276969,0.109349184,-0.007055687,0.07540404,-0.23189904,-1.7642444,0.24792297,-2.9611735,-0.034529295,131.26224,0.1,0.29173818,0.44282746,0.14004157,0.1027377,inf,inf,inf,inf,1,1,1,1,2,0,2,1,4,1,1,1
86948853,16344161,-33.9385866,18.8741493,-1.8556279,0.8589924,-0.5304695,0.067668386,-0.028586566,0.0,0.0039156275,-0.028799605,0.10977445,0.026168823,0.109349184,-0.007055687,0.07540404,0.003063349,-1.7756402,0.2475141,-2.9599912,-0.034529295,131.26224,0.1,0.2926543,0.443458,0.14051166,0.102906,inf,inf,inf,inf,1,1,1,1,2,0,2,1,4,1,1,1
86958896,16344161,-33.9385866,18.8741493,-1.8553883,0.8588039,-0.5307194,0.067668386,-0.028586566,0.0,0.0066834367,-0.028241089,0.10882513,0.024818443,0.109349184,-0.007055687,0.07540404,0.5239755,-1.5269403,0.36496943,-2.9587543,-0.034529295,131.26224,0.1,0.29357594,0.44409043,0.14097814,0.10307441,inf,inf,inf,inf,1,1,1,1,2,0,2,1,4,1,1,1
86968860,16344161,-33.9385866,18.8741493,-1.855143,0.85860705,-0.5309404,0.067668386,-0.028586566,0.0,0.007901886,-0.027973508,0.108016066,0.023660356,0.109349184,-0.007055687,0.07540404,0.6480369,-1.018251,0.40116525,-2.957485,-0.034529295,131.26224,0.1,0.29450303,0.44472474,0.14144737,0.10324262,inf,inf,inf,inf,1,1,1,1,2,0,2,1,4,1,1,1
86978863,16344161,-33.9385866,18.8741493,-1.854896,0.8583917,-0.5311169,0.067668386,-0.028586566,0.0,0.007874445,-0.027850496,0.107063904,0.022409324,0.109349184,-0.007055687,0.07540404,0.41393307,-0.29304245,0.23066917,-2.9562116,-0.034529295,131.26224,0.1,0.2954356,0.44536102,0.14191897,0.10341088,inf,inf,inf,inf,1,1,1,1,2,0,2,1,4,1,1,1
86988867,16344161,-33.9385866,18.8741493,-1.8544285,0.858453,-0.5317557,0.067668386,-0.028586566,0.0,0.00855015,-0.02794498,0.10696628,0.021541046,0.109349184,-0.007055687,0.07540404,0.33956295,0.30120814,0.2679161,-2.9549932,-0.034529295,131.26224,0.1,0.27870438,0.4417027,0.13289306,0.1009384,inf,inf,inf,inf,1,1,1,1,2,0,2,1,4,1,1,1
86998871,16344161,-33.9385866,18.8741493,-1.8539698,0.8584898,-0.532337,0.067668386,-0.028586566,0.0,0.008252158,-0.028194923,0.10645571,0.020328648,0.109349184,-0.007055687,0.07540404,0.1321504,0.7635044,0.16533652,-2.9539516,-0.034529295,131.26224,0.1,0.27953908,0.44231653,0.1333462,0.10110555,inf,inf,inf,inf,1,1,1,1,2,0,2,1,4,1,1,1
87008875,16344161,-33.9385866,18.8741493,-1.8535224,0.85850793,-0.53286886,0.067668386,-0.028586566,0.0,0.0077434657,-0.02982,0.105312064,0.01854922,0.109349184,-0.007055687,0.07540404,-0.11757591,0.5591149,0.066464394,-2.9532342,-0.034529295,131.26224,0.1,0.280379,0.44293222,0.13380058,0.10127272,inf,inf,inf,inf,1,1,1,1,2,0,2,1,4,1,1,1
87018878,16344161,-33.9385866,18.8741493,-1.8530853,0.85850275,-0.533569,0.067668386,-0.028586566,0.0,0.008185,-0.032156676,0.10438721,0.016837485,0.109349184,-0.007055687,0.07540404,-0.13789201,0.20305723,0.10482923,-2.9528506,-0.034529295,131.26224,0.1,0.2812242,0.4400304,0.13426,0.1011415,inf,inf,inf,inf,1,1,1,1,2,0,2,1,4,1,1,1
87028881,16344161,-33.9385866,18.8741493,-1.8526645,0.8584698,-0.53421485,0.067668386,-0.028586566,0.0,0.008429799,-0.034817986,0.10401062,0.015744513,0.109349184,-0.007055687,0.07540404,0.14928578,-0.1159019,0.15662953,-2.9528131,-0.034529295,131.26224,0.1,0.2820747,0.4406449,0.13472092,0.101308994,inf,inf,inf,inf,1,1,1,1,2,0,2,1,4,1,1,1
87038886,16344161,-33.9385866,18.8741493,-1.8522524,0.85840935,-0.53479725,0.067668386,-0.028586566,0.0,0.008838614,-0.036821567,0.10459314,0.015678318,0.109349184,-0.007055687,0.07540404,0.17587708,-0.2563914,0.11250092,-2.9530826,-0.034529295,131.26224,0.1,0.28293046,0.4412613,0.13518155,0.101476684,inf,inf,inf,inf,1,1,1,1,2,0,2,1,4,1,1,1
87048891,16344161,-33.9385866,18.8741493,-1.8518535,0.85832393,-0.5353158,0.067668386,-0.028586566,0.0,0.009179963,-0.037430722,0.10479166,0.015293095,0.109349184,-0.007055687,0.07540404,0.37150538,0.029536657,-0.050576825,-2.9536386,-0.034529295,131.26224,0.1,0.28379157,0.44187957,0.1356388,0.10164431,inf,inf,inf,inf,1,1,1,1,2,0,2,1,4,1,1,1
87058892,16344161,-33.9385866,18.8741493,-1.8514717,0.8582154,-0.5357724,0.067668386,-0.028586566,0.0,0.007845893,-0.038094047,0.1050805,0.015060509,0.109349184,-0.007055687,0.07540404,0.22302899,0.3914924,-0.24770969,-2.954486,-0.034529295,131.26224,0.1,0.28465798,0.44249973,0.13609679,0.1018119,inf,inf,inf,inf,1,1,1,1,2,0,2,1,4,1,1,1
87068897,16344161,-33.9385866,18.8741493,-1.8511083,0.85808176,-0.5361632,0.067668386,-0.028586566,0.0,0.005662214,-0.039722763,0.106586024,0.016104396,0.109349184,-0.007055687,0.07540404,-0.27921554,0.536148,-0.246328,-2.9555073,-0.034529295,131.26224,0.1,0.28552973,0.44312173,0.13655593,0.101979524,inf,inf,inf,inf,1,1,1,1,2,0,2,1,4,1,1,1
87078899,16344161,-33.9385866,18.8741493,-1.8507718,0.85791963,-0.5364896,0.067668386,-0.028586566,0.0,0.0031371983,-0.04308236,0.1082442,0.017358094,0.109349184,-0.007055687,0.07540404,-0.6271085,0.20774901,-0.13207972,-2.9565122,-0.034529295,131.26224,0.1,0.28640684,0.44374564,0.13701284,0.10214712,inf,inf,inf,inf,1,1,1,1,2,0,2,1,4,1,1,1
87088903,16344161,-33.9385866,18.8741493,-1.8504714,0.857725,-0.53675133,0.067668386,-0.028586566,0.0,0.00060543686,-0.046924032,0.11084031,0.019604836,0.109349184,-0.007055687,0.07540404,-0.6244906,-0.29072967,0.23006064,-2.95727,-0.034529295,131.26224,0.1,0.28728926,0.44437146,0.13747115,0.10231485,inf,inf,inf,inf,1,1,1,1,2,0,2,1,4,1,1,1
87098906,16344161,-33.9385866,18.8741493,-1.85021,0.85750085,-0.53695285,0.067668386,-0.028586566,0.0,-0.0022917492,-0.05073853,0.11240674,0.020874714,0.109349184,-0.007055687,0.07540404,-0.5920061,-0.95976335,0.47523865,-2.9577591,-0.034529295,131.26224,0.1,0.28817704,0.44499913,0.13793217,0.1024825,inf,inf,inf,inf,1,1,1,1,2,0,2,1,4,1,1,1
87108910,16344161,-33.9385866,18.8741493,-1.8499916,0.8572484,-0.53721416,0.067668386,-0.028586566,0.0,-0.0047057373,-0.052618794,0.113726504,0.021828566,0.109349184,-0.007055687,0.07540404,-0.26820144,-1.1176023,0.53446496,-2.9578478,-0.034529295,131.26224,0.1,0.28907022,0.44206,0.13839486,0.10234082,inf,inf,inf,inf,1,1,1,1,2,0,2,1,4,1,1,1
87118913,16344161,-33.9385866,18.8741493,-1.8498105,0.8569702,-0.53741074,0.067668386,-0.028586566,0.0,-0.00713798,-0.05271277,0.11484459,0.022634495,0.109349184,-0.007055687,0.07540404,-0.11484038,-0.6332002,0.36843762,-2.9575992,-0.034529295,131.26224,0.1,0.2899688,0.4426864,0.13885842,0.10250888,inf,inf,inf,inf,1,1,1,1,2,0,2,1,4,1,1,1
87128917,16344161,-33.9385866,18.8741493,-1.8496667,0.85667366,-0.5375456,0.067668386,-0.028586566,0.0,-0.0103524495,-0.05183922,0.115711324,0.02324088,0.109349184,-0.007055687,0.07540404,-0.1667643,0.039677158,0.18077986,-2.9570408,-0.034529295,131.26224,0.1,0.29087275,0.44331476,0.13932532,0.102677114,inf,inf,inf,inf,1,1,1,1,2,0,2,1,4,1,1,1
87138925,16344161,-33.9385866,18.8741493,-1.8495497,0.85636926,-0.5376251,0.067668386,-0.028586566,0.0,-0.012366448,-0.05131832,0.11596512,0.023283698,0.109349184,-0.007055687,0.07540404,-0.33725214,0.3102685,-0.012290654,-2.956246,-0.034529295,131.26224,0.1,0.29178217,0.44394502,0.13978948,0.10284532,inf,inf,inf,inf,1,1,1,1,2,0,2,1,4,1,1,1
87148928,16344161,-33.9385866,18.8741493,-1.8494568,0.8560609,-0.5376593,0.067668386,-0.028586566,0.0,-0.014457623,-0.051180795,0.115971774,0.023126537,0.109349184,-0.007055687,0.07540404,-0.5048065,0.33091038,-0.051010404,-2.9552536,-0.034529295,131.26224,0.1,0.29269698,0.44457716,0.1402564,0.1030134,inf,inf,inf,inf,1,1,1,1,2,0,2,1,4,1,1,1
87158929,16344161,-33.9385866,18.8741493,-1.849387,0.8557572,-0.53764755,0.067668386,-0.028586566,0.0,-0.015104881,-0.052297253,0.116794534,0.023830943,0.109349184,-0.007055687,0.07540404,-0.28817284,-0.37751916,0.061575048,-2.9541276,-0.034529295,131.26224,0.1,0.2936173,0.44521123,0.14072007,0.10318163,inf,inf,inf,inf,1,1,1,1,2,0,2,1,4,1,1,1
87168939,16344161,-33.9385866,18.8741493,-1.8493352,0.8554547,-0.5375831,0.067668386,-0.028586566,0.0,-0.014230526,-0.053427752,0.11857579,0.025537537,0.109349184,-0.007055687,0.07540404,0.31972682,-1.0760018,0.27463704,-2.9528716,-0.034529295,131.26224,0.1,0.29454303,0.44584718,0.14118607,0.10334975,inf,inf,inf,inf,1,1,1,1,2,0,2,1,4,1,1,1
87178939,16344161,-33.9385866,18.8741493,-1.8492942,0.8551561,-0.5374715,0.067668386,-0.028586566,0.0,-0.013944858,-0.051509563,0.11818238,0.025111126,0.109349184,-0.007055687,0.07540404,0.6251964,-0.9318908,0.0036379986,-2.9514968,-0.034529295,131.26224,0.1,0.29547423,0.4464851,0.14165536,0.103517905,inf,inf,inf,inf,1,1,1,1,2,0,2,1,4,1,1,1
87188938,16344161,-33.9385866,18.8741493,-1.8490846,0.85522383,-0.5378377,0.067668386,-0.028586566,0.0,-0.014925542,-0.04732097,0.11729197,0.023694998,0.109349184,-0.007055687,0.07540404,0.49727502,0.24897186,-0.23729463,-2.950212,-0.034529295,131.26224,0.1,0.27875233,0.44279596,0.13267381,0.10103723,inf,inf,inf,inf,1,1,1,1,2,0,2,1,4,1,1,1
87198942,16344161,-33.9385866,18.8741493,-1.8488872,0.855282,-0.5383639,0.067668386,-0.028586566,0.0,-0.01612833,-0.04354382,0.11744298,0.02316394,0.109349184,-0.007055687,0.07540404,0.028873324,1.553389,-0.30427796,-2.9490795,-0.034529295,131.26224,0.1,0.27958602,0.43989518,0.13312654,0.100907154,inf,inf,inf,inf,1,1,1,1,2,0,2,1,4,1,1,1
87208946,16344161,-33.9385866,18.8741493,-1.8486954,0.8553407,-0.53883374,0.067668386,-0.028586566,0.0,-0.016076917,-0.043014925,0.117649205,0.0227567,0.109349184,-0.007055687,0.07540404,-0.33101365,1.4668708,-0.08447422,-2.9479342,-0.034529295,131.26224,0.1,0.28042495,0.4405075,0.13357653,0.101074204,inf,inf,inf,inf,1,1,1,1,2,0,2,1,4,1,1,1
87218950,16344161,-33.9385866,18.8741493,-1.8485094,0.85539836,-0.5392596,0.067668386,-0.028586566,0.0,-0.015093996,-0.044825505,0.11705137,0.021611214,0.109349184,-0.007055687,0.07540404,-0.2565968,0.4339622,0.30352572,-2.9468284,-0.034529295,131.26224,0.1,0.2812691,0.4411217,0.13402857,0.10124149,inf,inf,inf,inf,1,1,1,1,2,0,2,1,4,1,1,1
87228953,16344161,-33.9385866,18.8741493,-1.8483299,0.85545814,-0.53964853,0.067668386,-0.028586566,0.0,-0.013642294,-0.04461126,0.11473611,0.018811455,0.109349184,-0.007055687,0.07540404,0.0912177,-0.31515446,0.29551277,-2.9459152,-0.034529295,131.26224,0.1,0.2821185,0.44173774,0.13448091,0.10140874,inf,inf,inf,inf,1,1,1,1,2,0,2,1,4,1,1,1
87238957,16344161,-33.9385866,18.8741493,-1.8481491,0.8555156,-0.53999627,0.067668386,-0.028586566,0.0,-0.0129055865,-0.04192698,0.112431295,0.016082639,0.109349184,-0.007055687,0.07540404,-0.041753966,0.07912843,-0.12931666,-2.9452965,-0.034529295,131.26224,0.1,0.2829731,0.4423557,0.13492966,0.101575844,inf,inf,inf,inf,1,1,1,1,2,0,2,1,4,1,1,1
87248960,16344161,-33.9385866,18.8741493,-1.8479651,0.85556465,-0.5402909,0.067668386,-0.028586566,0.0,-0.012025891,-0.0399604,0.11305949,0.01634496,0.109349184,-0.007055687,0.07540404,-0.2754349,0.762715,-0.21898802,-2.9449124,-0.034529295,131.26224,0.1,0.283833,0.4429755,0.13537861,0.10174295,inf,inf,inf,inf,1,1,1,1,2,0,2,1,4,1,1,1
87258963,16344161,-33.9385866,18.8741493,-1.8477757,0.8556111,-0.54052854,0.067668386,-0.028586566,0.0,-0.009859723,-0.0424319,0.114748016,0.017723372,0.109349184,-0.007055687,0.07540404,-0.19095592,-0.19007632,0.09214075,-2.9445338,-0.034529295,131.26224,0.1,0.28469816,0.44359714,0.13582489,0.10190998,inf,inf,inf,inf,1,1,1,1,2,0,2,1,4,1,1,1
87268967,16344161,-33.9385866,18.8741493,-1.8475883,0.85564965,-0.54072016,0.067668386,-0.028586566,0.0,-0.008037102,-0.045171086,0.11418369,0.016902376,0.109349184,-0.007055687,0.07540404,0.23515217,-1.4727157,0.22564477,-2.944088,-0.034529295,131.26224,0.1,0.28556857,0.44422072,0.13627574,0.10207716,inf,inf,inf,inf,1,1,1,1,2,0,2,1,4,1,1,1
87278977,16344161,-33.9385866,18.8741493,-1.8474106,0.8556812,-0.54113615,0.067668386,-0.028586566,0.0,-0.007896497,-0.042946238,0.11075482,0.013006256,0.109349184,-0.007055687,0.07540404,0.4511171,-1.329299,-0.31546155,-2.943566,-0.034529295,131.26224,0.1,0.28644428,0.44129604,0.13672797,0.10193876,inf,inf,inf,inf,1,1,1,1,2,0,2,1,4,1,1,1
87288974,16344161,-33.9385866,18.8741493,-1.8472519,0.855703,-0.5415177,0.067668386,-0.028586566,0.0,-0.00967068,-0.038995568,0.10831031,0.010155144,0.109349184,-0.007055687,0.07540404,0.31896517,-0.007118264,-0.6333264,-2.9433322,-0.034529295,131.26224,0.1,0.28732526,0.44191834,0.13718154,0.10210643,inf,inf,inf,inf,1,1,1,1,2,0,2,1,4,1,1,1
87298986,16344161,-33.9385866,18.8741493,-1.8471117,0.8557243,-0.5418612,0.067668386,-0.028586566,0.0,-0.011229556,-0.034556225,0.1081123,0.009608695,0.109349184,-0.007055687,0.07540404,0.03786324,1.2638149,-0.27454463,-2.9433193,-0.034529295,131.26224,0.1,0.28821158,0.44254258,0.13763672,0.10227409,inf,inf,inf,inf,1,1,1,1,2,0,2,1,4,1,1,1
87308987,16344161,-33.9385866,18.8741493,-1.846991,0.8557625,-0.542177,0.067668386,-0.028586566,0.0,-0.012886943,-0.03305741,0.10665373,0.007857481,0.109349184,-0.007055687,0.07540404,-0.19511682,1.0719407,0.15301193,-2.9432335,-0.034529295,131.26224,0.1,0.28910324,0.4431687,0.13809508,0.102441944,inf,inf,inf,inf,1,1,1,1,2,0,2,1,4,1,1,1
87318995,16344161,-33.9385866,18.8741493,-1.8468848,0.85581315,-0.5424602,0.067668386,-0.028586566,0.0,-0.013501431,-0.03177282,0.103860795,0.0048253597,0.109349184,-0.007055687,0.07540404,-0.3221031,0.6863853,-0.13570075,-2.9434574,-0.034529295,131.26224,0.1,0.29000026,0.44379672,0.13855496,0.10260982,inf,inf,inf,inf,1,1,1,1,2,0,2,1,4,1,1,1
87329004,16344161,-33.9385866,18.8741493,-1.846788,0.855883,-0.542716,0.067668386,-0.028586566,0.0,-0.013129344,-0.029332256,0.10238078,0.0031573372,0.109349184,-0.007055687,0.07540404,-0.25732082,0.36208916,-0.04758192,-2.9442928,-0.034529295,131.26224,0.1,0.29090264,0.44442666,0.13901237,0.10277763,inf,inf,inf,inf,1,1,1,1,2,0,2,1,4,1,1,1
87338999,16344161,-33.9385866,18.8741493,-1.846697,0.8559631,-0.54294825,0.067668386,-0.028586566,0.0,-0.0124068,-0.027217707,0.10048797,0.001125604,0.109349184,-0.007055687,0.07540404,-0.07929093,0.40884382,0.08348834,-2.945378,-0.034529295,131.26224,0.1,0.29181042,0.44505847,0.13946708,0.102945656,inf,inf,inf,inf,1,1,1,1,2,0,2,1,4,1,1,1
87349031,16344161,-33.9385866,18.8741493,-1.846601,0.8560371,-0.5431491,0.067668386,-0.028586566,0.0,-0.01188825,-0.026619283,0.09755527,-0.0018989448,0.109349184,-0.007055687,0.07540404,-0.3552083,0.5768095,-0.3084346,-2.9460788,-0.034529295,131.26224,0.1,0.29272354,0.44569218,0.13993013,0.10311384,inf,inf,inf,inf,1,1,1,1,2,0,2,1,4,1,1,1
87359020,16344161,-33.9385866,18.8741493,-1.846496,0.85611707,-0.5433239,0.067668386,-0.028586566,0.0,-0.009719168,-0.02797091,0.096878976,-0.0026221224,0.109349184,-0.007055687,0.07540404,-0.28166798,-0.33518854,-0.30111694,-2.9465137,-0.034529295,131.26224,0.1,0.29364207,0.44632784,0.14039499,0.103282265,inf,inf,inf,inf,1,1,1,1,2,0,2,1,4,1,1,1
87369006,16344161,-33.9385866,18.8741493,-1.8463888,0.8562087,-0.5438198,0.067668386,-0.028586566,0.0,-0.007090033,-0.027919373,0.09646294,-0.0033928056,0.109349184,-0.007055687,0.07540404,0.34336802,-1.2372375,0.105892956,-2.947095,-0.034529295,131.26224,0.1,0.29456607,0.4433647,0.14085668,0.10313371,inf,inf,inf,inf,1,1,1,1,2,0,2,1,4,1,1,1
87379007,16344161,-33.9385866,18.8741493,-1.8462865,0.8563159,-0.5442742,0.067668386,-0.028586566,0.0,-0.0067560496,-0.022952197,0.09446253,-0.005691209,0.109349184,-0.007055687,0.07540404,0.59521866,-0.6777526,-0.04458232,-2.9477675,-0.034529295,131.26224,0.1,0.29549548,0.44399905,0.14131911,0.10330211,inf,inf,inf,inf,1,1,1,1,2,0,2,1,4,1,1,1
87389010,16344161,-33.9385866,18.8741493,-1.8463156,0.8562022,-0.545096,0.067668386,-0.028586566,0.0,-0.009846536,-0.019133512,0.0917745,-0.009053951,0.109349184,-0.007055687,0.07540404,-0.43744802,0.36104503,-0.96584696,-2.9484212,-0.034529295,131.26224,0.1,0.27881894,0.44037735,0.1323917,0.100837626,inf,inf,inf,inf,1,1,1,1,2,0,2,1,4,1,1,1
87399013,16344161,-33.9385866,18.8741493,-1.8463491,0.85610396,-0.54586744,0.067668386,-0.028586566,0.0,-0.008518044,-0.019937525,0.09331646,-0.00811582,0.109349184,-0.007055687,0.07540404,-0.30420813,-0.20364007,-0.2620256,-2.9491885,-0.034529295,131.26224,0.1,0.27965137,0.44098935,0.13285007,0.10100493,inf,inf,inf,inf,1,1,1,1,2,0,2,1,4,1,1,1
87409017,16344161,-33.9385866,18.8741493,-1.8463895,0.85602605,-0.5465959,0.067668386,-0.028586566,0.0,-0.005271877,-0.019627737,0.093431786,-0.008536271,0.109349184,-0.007055687,0.07540404,0.9458011,-1.085832,0.6277819,-2.9499588,-0.034529295,131.26224,0.1,0.28048903,0.4416032,0.13330905,0.101172425,inf,inf,inf,inf,1,1,1,1,2,0,2,1,4,1,1,1
87419021,16344161,-33.9385866,18.8741493,-1.8464334,0.8559511,-0.5472787,0.067668386,-0.028586566,0.0,-0.007371704,-0.015705435,0.08862421,-0.013814249,0.109349184,-0.007055687,0.07540404,0.64109343,-0.04532342,-0.30222002,-2.9508128,-0.034529295,131.26224,0.1,0.28133193,0.44221893,0.133758,0.10133983,inf,inf,inf,inf,1,1,1,1,2,0,2,1,4,1,1,1
87429024,16344161,-33.9385866,18.8741493,-1.8464711,0.85586554,-0.54791176,0.067668386,-0.028586566,0.0,-0.009441159,-0.014614502,0.08759419,-0.015252034,0.109349184,-0.007055687,0.07540404,-0.5737054,1.0179801,-0.8336333,-2.9516678,-0.034529295,131.26224,0.1,0.28218004,0.44283655,0.13420402,0.10150714,inf,inf,inf,inf,1,1,1,1,2,0,2,1,4,1,1,1
87439028,16344161,-33.9385866,18.8741493,-1.8465105,0.855775,-0.54850584,0.067668386,-0.028586566,0.0,-0.0057781134,-0.01855934,0.09003108,-0.013162736,0.109349184,-0.007055687,0.07540404,0.26859832,0.01457333,0.4348101,-2.9521613,-0.034529295,131.26224,0.1,0.28303337,0.44345602,0.13465914,0.10167438,inf,inf,inf,inf,1,1,1,1,2,0,2,1,4,1,1,1
87449032,16344161,-33.9385866,18.8741493,-1.8465499,0.85567576,-0.549058,0.067668386,-0.028586566,0.0,-0.0041118,-0.01808168,0.08814366,-0.0153401205,0.109349184,-0.007055687,0.07540404,1.025975,-0.029947018,0.5451431,-2.9523993,-0.034529295,131.26224,0.1,0.28389195,0.44407734,0.13512544,0.10184204,inf,inf,inf,inf,1,1,1,1,2,0,2,1,4,1,1,1
87459034,16344161,-33.9385866,18.8741493,-1.8465817,0.85556793,-0.5498587,0.067668386,-0.028586566,0.0,-0.0067601497,-0.014949473,0.085278414,-0.018738385,0.109349184,-0.007055687,0.07540404,0.00792805,1.2074152,-0.3540868,-2.952834,-0.034529295,131.26224,0.1,0.28475586,0.4411539,0.13558835,0.10170566,inf,inf,inf,inf,1,1,1,1,2,0,2,1,4,1,1,1
87469038,16344161,-33.9385866,18.8741493,-1.8466036,0.85545397,-0.550603,0.067668386,-0.028586566,0.0,-0.0048252637,-0.016067542,0.08744599,-0.017037734,0.109349184,-0.007055687,0.07540404,-0.18760872,1.3807846,0.13449618,-2.953381,-0.034529295,131.26224,0.1,0.28562504,0.44177404,0.1360442,0.1018736,inf,inf,inf,inf,1,1,1,1,2,0,2,1,4,1,1,1
87479041,16344161,-33.9385866,18.8741493,-1.8466247,0.8553522,-0.5513012,0.067668386,-0.028586566,0.0,-0.0016444784,-0.017525345,0.087876804,-0.017010573,0.109349184,-0.007055687,0.07540404,0.8127483,0.29325056,0.9442362,-2.9536085,-0.034529295,131.26224,0.1,0.28649953,0.44239604,0.13650532,0.102041274,inf,inf,inf,inf,1,1,1,1,2,0,2,1,4,1,1,1
87489045,16344161,-33.9385866,18.8741493,-1.846635,0.8552552,-0.5519438,0.067668386,-0.028586566,0.0,-0.0029832977,-0.014374667,0.08443808,-0.020792168,0.109349184,-0.007055687,0.07540404,0.16888042,0.8443746,-0.03733729,-2.95406,-0.034529295,131.26224,0.1,0.28737938,0.44301996,0.13697241,0.102209136,inf,inf,inf,inf,1,1,1,1,2,0,2,1,4,1,1,1
87499050,16344161,-33.9385866,18.8741493,-1.8466403,0.8551517,-0.5525433,0.067668386,-0.028586566,0.0,-0.0020055452,-0.014165983,0.08533414,-0.020180697,0.109349184,-0.007055687,0.07540404,0.009041743,1.3917425,0.3191861,-2.95468,-0.034529295,131.26224,0.1,0.28826457,0.44364578,0.13743524,0.10237715,inf,inf,inf,inf,1,1,1,1,2,0,2,1,4,1,1,1
87509090,16344161,-33.9385866,18.8741493,-1.8466456,0.85505295,-0.55310196,0.067668386,-0.028586566,0.0,-0.0010468262,-0.016496269,0.083546504,-0.022197166,0.109349184,-0.007055687,0.07540404,0.27399284,0.41667342,0.43812752,-2.954717,-0.034529295,131.26224,0.1,0.2891551,0.44427344,0.13789988,0.1025451,inf,inf,inf,inf,1,1,1,1,2,0,2,1,4,1,1,1
87519058,16344161,-33.9385866,18.8741493,-1.8466436,0.85494614,-0.55362207,0.067668386,-0.028586566,0.0,-0.0004523949,-0.016370717,0.0823305,-0.023588393,0.109349184,-0.007055687,0.07540404,0.14204827,0.53011644,0.12001672,-2.954922,-0.034529295,131.26224,0.1,0.290051,0.44490305,0.13837065,0.102713086,inf,inf,inf,inf,1,1,1,1,2,0,2,1,4,1,1,1
87529060,16344161,-33.9385866,18.8741493,-1.8466375,0.8548312,-0.5541052,0.067668386,-0.028586566,0.0,0.0006049861,-0.015343788,0.08231742,-0.023725607,0.109349184,-0.007055687,0.07540404,0.22408232,1.0515848,0.55731124,-2.9552798,-0.034529295,131.26224,0.1,0.29095232,0.44553453,0.13883203,0.102880955,inf,inf,inf,inf,1,1,1,1,2,0,2,1,4,1,1,1
87539063,16344161,-33.9385866,18.8741493,-1.8466208,0.85471267,-0.5548249,0.067668386,-0.028586566,0.0,0.0009805392,-0.016774522,0.07929045,-0.027107911,0.109349184,-0.007055687,0.07540404,-0.078141116,0.7262293,-0.09799056,-2.9551682,-0.034529295,131.26224,0.1,0.291859,0.44258636,0.13929276,0.102736205,inf,inf,inf,inf,1,1,1,1,2,0,2,1,4,1,1,1
87549068,16344161,-33.9385866,18.8741493,-1.846591,0.85459036,-0.55550027,0.067668386,-0.028586566,0.0,0.0043456675,-0.017169265,0.08032352,-0.026371133,0.109349184,-0.007055687,0.07540404,0.36586437,0.47135973,0.33833706,-2.9554043,-0.034529295,131.26224,0.1,0.29277107,0.44321653,0.1397607,0.102904625,inf,inf,inf,inf,1,1,1,1,2,0,2,1,4,1,1,1
87559070,16344161,-33.9385866,18.8741493,-1.846546,0.8544625,-0.5561406,0.067668386,-0.028586566,0.0,0.004429596,-0.016006306,0.07726524,-0.029668842,0.109349184,-0.007055687,0.07540404,0.013319677,0.9167827,0.20608643,-2.9555213,-0.034529295,131.26224,0.1,0.2936886,0.44384867,0.14023176,0.10307301,inf,inf,inf,inf,1,1,1,1,2,0,2,1,4,1,1,1
87569074,16344161,-33.9385866,18.8741493,-1.8464735,0.8543361,-0.55672795,0.067668386,-0.028586566,0.0,0.0073893582,-0.017251765,0.07727102,-0.029848134,0.109349184,-0.007055687,0.07540404,-0.30444628,0.506791,-0.18105961,-2.9554057,-0.034529295,131.26224,0.1,0.29461154,0.4444827,0.14068732,0.103241175,inf,inf,inf,inf,1,1,1,1,2,0,2,1,4,1,1,1
87579077,16344161,-33.9385866,18.8741493,-1.8463944,0.85422385,-0.557278,0.067668386,-0.028586566,0.0,0.011016873,-0.01526571,0.0788721,-0.028379934,0.109349184,-0.007055687,0.07540404,0.7550351,0.2824531,0.8128879,-2.955682,-0.034529295,131.26224,0.1,0.2955399,0.44511867,0.14114895,0.103409655,inf,inf,inf,inf,1,1,1,1,2,0,2,1,4,1,1,1
87589081,16344161,-33.9385866,18.8741493,-1.8464636,0.85411215,-0.5581315,0.067668386,-0.028586566,0.0,0.008490599,-0.013704721,0.0742452,-0.033458915,0.109349184,-0.007055687,0.07540404,-0.72109276,1.100287,-0.61578876,-2.955715,-0.034529295,131.26224,0.1,0.27886838,0.44146627,0.13226049,0.10093738,inf,inf,inf,inf,1,1,1,1,2,0,2,1,4,1,1,1
87599084,16344161,-33.9385866,18.8741493,-1.8465238,0.8540123,-0.5589457,0.067668386,-0.028586566,0.0,0.01401678,-0.015669312,0.077394836,-0.030697675,0.109349184,-0.007055687,0.07540404,0.426836,0.15093467,0.57259357,-2.9555857,-0.034529295,131.26224,0.1,0.2797,0.44207978,0.13271345,0.10110446,inf,inf,inf,inf,1,1,1,1,2,0,2,1,4,1,1,1
87609088,16344161,-33.9385866,18.8741493,-1.8465803,0.8539188,-0.5597152,0.067668386,-0.028586566,0.0,0.010613438,-0.011596106,0.07246608,-0.035953492,0.109349184,-0.007055687,0.07540404,-0.0883849,0.8674269,-0.12608635,-2.9554863,-0.034529295,131.26224,0.1,0.28053686,0.4426952,0.13315439,0.10127159,inf,inf,inf,inf,1,1,1,1,2,0,2,1,4,1,1,1
87619092,16344161,-33.9385866,18.8741493,-1.846614,0.8538277,-0.5604294,0.067668386,-0.028586566,0.0,0.012224081,-0.012058697,0.07504255,-0.033645473,0.109349184,-0.007055687,0.07540404,-0.7130727,0.96275747,0.13457142,-2.955501,-0.034529295,131.26224,0.1,0.28137887,0.4433124,0.13361183,0.101438895,inf,inf,inf,inf,1,1,1,1,2,0,2,1,4,1,1,1
87629095,16344161,-33.9385866,18.8741493,-1.8466623,0.85376096,-0.5613656,0.067668386,-0.028586566,0.0,0.012990887,-0.010188138,0.073390625,-0.035773102,0.109349184,-0.007055687,0.07540404,0.37463337,0.47282287,0.43144226,-2.9551997,-0.034529295,131.26224,0.1,0.2822261,0.4404031,0.13407353,0.10130616,inf,inf,inf,inf,1,1,1,1,2,0,2,1,4,1,1,1
87639099,16344161,-33.9385866,18.8741493,-1.8466938,0.85369575,-0.5622257,0.067668386,-0.028586566,0.0,0.010541425,-0.0076937024,0.0747937,-0.0347801,0.109349184,-0.007055687,0.07540404,-0.8773289,1.3385228,0.03344397,-2.9552937,-0.034529295,131.26224,0.1,0.2830786,0.44101915,0.13451743,0.10147357,inf,inf,inf,inf,1,1,1,1,2,0,2,1,4,1,1,1
87649103,16344161,-33.9385866,18.8741493,-1.8467319,0.8536502,-0.56303364,0.067668386,-0.028586566,0.0,0.01365511,-0.0083534755,0.07546052,-0.034460414,0.109349184,-0.007055687,0.07540404,0.19086954,0.5514202,0.63187885,-2.9549263,-0.034529295,131.26224,0.1,0.28393632,0.4416371,0.13496837,0.10164116,inf,inf,inf,inf,1,1,1,1,2,0,2,1,4,1,1,1
87659107,16344161,-33.9385866,18.8741493,-1.8467624,0.85360247,-0.5637653,0.067668386,-0.028586566,0.0,0.011780932,-0.0064846626,0.0759508,-0.034256916,0.109349184,-0.007055687,0.07540404,-0.26700532,1.0896791,0.038702495,-2.9548469,-0.034529295,131.26224,0.1,0.28479925,0.44225693,0.1354345,0.10180883,inf,inf,inf,inf,1,1,1,1,2,0,2,1,4,1,1,1
87669109,16344161,-33.9385866,18.8741493,-1.8467911,0.8535475,-0.5644464,0.067668386,-0.028586566,0.0,0.013391407,-0.0099231815,0.07812214,-0.032314543,0.109349184,-0.007055687,0.07540404,0.039350785,0.52151525,0.876518,-2.95482,-0.034529295,131.26224,0.1,0.2856675,0.44287863,0.13588531,0.10197654,inf,inf,inf,inf,1,1,1,1,2,0,2,1,4,1,1,1
87679114,16344161,-33.9385866,18.8741493,-1.8468199,0.85347545,-0.56504965,0.067668386,-0.028586566,0.0,0.012774283,-0.009642558,0.07737096,-0.033239134,0.109349184,-0.007055687,0.07540404,0.100585185,0.9053885,-0.13106738,-2.9542131,-0.034529295,131.26224,0.1,0.28654101,0.44350222,0.13634822,0.102144144,inf,inf,inf,inf,1,1,1,1,2,0,2,1,4,1,1,1
87689120,16344161,-33.9385866,18.8741493,-1.8468415,0.8533756,-0.56560004,0.067668386,-0.028586566,0.0,0.013712735,-0.013905703,0.08228199,-0.028448606,0.109349184,-0.007055687,0.07540404,0.118719,0.71912056,1.1792473,-2.9539099,-0.034529295,131.26224,0.1,0.28741986,0.4441277,0.13680702,0.10231184,inf,inf,inf,inf,1,1,1,1,2,0,2,1,4,1,1,1
87699137,16344161,-33.9385866,18.8741493,-1.8468616,0.8532637,-0.5660693,0.067668386,-0.028586566,0.0,0.0138653815,-0.013991698,0.07954892,-0.03125143,0.109349184,-0.007055687,0.07540404,0.28116715,0.7209358,-0.39081082,-2.952965,-0.034529295,131.26224,0.1,0.288304,0.44475508,0.13726327,0.10247978,inf,inf,inf,inf,1,1,1,1,2,0,2,1,4,1,1,1
87709124,16344161,-33.9385866,18.8741493,-1.846875,0.85312885,-0.56649363,0.067668386,-0.028586566,0.0,0.014913221,-0.017431637,0.08521931,-0.025602331,0.109349184,-0.007055687,0.07540404,0.39130223,0.5819692,1.0249486,-2.952608,-0.034529295,131.26224,0.1,0.28919345,0.44538432,0.13773157,0.10264747,inf,inf,inf,inf,1,1,1,1,2,0,2,1,4,1,1,1
87719127,16344161,-33.9385866,18.8741493,-1.846878,0.8529823,-0.56722254,0.067668386,-0.028586566,0.0,0.015295226,-0.01828861,0.08089133,-0.03028285,0.109349184,-0.007055687,0.07540404,0.27935842,0.39436743,-0.5988534,-2.9516628,-0.034529295,131.26224,0.1,0.2900883,0.44243756,0.13818522,0.10250432,inf,inf,inf,inf,1,1,1,1,2,0,2,1,4,1,1,1
87729136,16344161,-33.9385866,18.8741493,-1.8468771,0.8528115,-0.5678976,0.067668386,-0.028586566,0.0,0.016141327,-0.021451581,0.0869695,-0.024496092,0.109349184,-0.007055687,0.07540404,0.47489786,0.28873122,0.9513772,-2.95116,-0.034529295,131.26224,0.1,0.29098845,0.44306555,0.13865502,0.10267237,inf,inf,inf,inf,1,1,1,1,2,0,2,1,4,1,1,1
87739135,16344161,-33.9385866,18.8741493,-1.8468657,0.85262644,-0.5684863,0.067668386,-0.028586566,0.0,0.016078807,-0.022911223,0.08400785,-0.027690578,0.109349184,-0.007055687,0.07540404,0.16590649,0.078770615,-0.6297709,-2.9500957,-0.034529295,131.26224,0.1,0.29189402,0.44369546,0.13911407,0.10284053,inf,inf,inf,inf,1,1,1,1,2,0,2,1,4,1,1,1
87749138,16344161,-33.9385866,18.8741493,-1.8468595,0.8524095,-0.5690233,0.067668386,-0.028586566,0.0,0.01513419,-0.026974337,0.088680394,-0.023194494,0.109349184,-0.007055687,0.07540404,0.159828,-0.065507576,0.5828077,-2.9495566,-0.034529295,131.26224,0.1,0.29280493,0.44432727,0.1395676,0.10300887,inf,inf,inf,inf,1,1,1,1,2,0,2,1,4,1,1,1
87759145,16344161,-33.9385866,18.8741493,-1.8468559,0.8521712,-0.56948066,0.067668386,-0.028586566,0.0,0.01519091,-0.028790636,0.086961165,-0.025036441,0.109349184,-0.007055687,0.07540404,0.22438797,-0.19349144,-0.59628177,-2.9485798,-0.034529295,131.26224,0.1,0.2937212,0.44496098,0.14004529,0.10317708,inf,inf,inf,inf,1,1,1,1,2,0,2,1,4,1,1,1
87769146,16344161,-33.9385866,18.8741493,-1.846869,0.8518953,-0.5699129,0.067668386,-0.028586566,0.0,0.011327716,-0.033766273,0.0864597,-0.025609203,0.109349184,-0.007055687,0.07540404,-0.2091478,-0.4012319,0.04661256,-2.9479234,-0.034529295,131.26224,0.1,0.29464293,0.44559664,0.14049391,0.10334544,inf,inf,inf,inf,1,1,1,1,2,0,2,1,4,1,1,1
87779149,16344161,-33.9385866,18.8741493,-1.8468963,0.8515945,-0.5702799,0.067668386,-0.028586566,0.0,0.012739087,-0.0353856,0.08830733,-0.023783596,0.109349184,-0.007055687,0.07540404,0.46405473,-0.43348977,-0.122852884,-2.9469745,-0.034529295,131.26224,0.1,0.29557,0.4462342,0.14097425,0.10351378,inf,inf,inf,inf,1,1,1,1,2,0,2,1,4,1,1,1
87789152,16344161,-33.9385866,18.8741493,-1.8467263,0.8512798,-0.5707069,0.067668386,-0.028586566,0.0,0.008782988,-0.041255705,0.08454927,-0.027611153,0.109349184,-0.007055687,0.07540404,-0.4167466,-0.74410087,-0.4735597,-2.946051,-0.034529295,131.26224,0.1,0.27890867,0.4425515,0.1320881,0.10103356,inf,inf,inf,inf,1,1,1,1,2,0,2,1,4,1,1,1
87799161,16344161,-33.9385866,18.8741493,-1.8465813,0.85093296,-0.57142836,0.067668386,-0.028586566,0.0,0.01013005,-0.042612795,0.08893177,-0.023597915,0.109349184,-0.007055687,0.07540404,0.4415951,-0.52645034,0.38341883,-2.944965,-0.034529295,131.26224,0.1,0.27973932,0.43965614,0.13254231,0.10090437,inf,inf,inf,inf,1,1,1,1,2,0,2,1,4,1,1,1
87809203,16344161,-33.9385866,18.8741493,-1.8464209,0.850561,-0.57207507,0.067668386,-0.028586566,0.0,0.009731219,-0.04693546,0.08609712,-0.026739398,0.109349184,-0.007055687,0.07540404,-0.3359162,-1.0444219,-0.5811101,-2.9437764,-0.034529295,131.26224,0.1,0.28057516,0.44026816,0.13298626,0.10107172,inf,inf,inf,inf,1,1,1,1,2,0,2,1,4,1,1,1
87819180,16344161,-33.9385866,18.8741493,-1.8462903,0.8501614,-0.5726941,0.067668386,-0.028586566,0.0,0.0074104243,-0.04717197,0.08803133,-0.025052061,0.109349184,-0.007055687,0.07540404,-0.061705388,-0.36800066,0.65936685,-2.942806,-0.034529295,131.26224,0.1,0.28141615,0.440882,0.13343354,0.10123909,inf,inf,inf,inf,1,1,1,1,2,0,2,1,4,1,1,1
87829173,16344161,-33.9385866,18.8741493,-1.8461386,0.8497501,-0.5732214,0.067668386,-0.028586566,0.0,0.011483536,-0.049173485,0.08909038,-0.02418259,0.109349184,-0.007055687,0.07540404,-0.06990383,-0.59304243,-0.2790358,-2.941544,-0.034529295,131.26224,0.1,0.2822623,0.44149777,0.13388225,0.10140655,inf,inf,inf,inf,1,1,1,1,2,0,2,1,4,1,1,1
87839171,16344161,-33.9385866,18.8741493,-1.8459982,0.84931684,-0.57373357,0.067668386,-0.028586566,0.0,0.007130957,-0.049424317,0.08456382,-0.02884378,0.109349184,-0.007055687,0.07540404,-0.65704614,-0.03244544,0.014474928,-2.9405732,-0.034529295,131.26224,0.1,0.2831137,0.4421154,0.13432546,0.10157377,inf,inf,inf,inf,1,1,1,1,2,0,2,1,4,1,1,1
87849174,16344161,-33.9385866,18.8741493,-1.8458745,0.8488853,-0.57418734,0.067668386,-0.028586566,0.0,0.009785545,-0.048997,0.089318104,-0.024171589,0.109349184,-0.007055687,0.07540404,0.2566777,-0.04660553,0.6937158,-2.9394476,-0.034529295,131.26224,0.1,0.28397024,0.4427349,0.1347802,0.101741314,inf,inf,inf,inf,1,1,1,1,2,0,2,1,4,1,1,1
87859188,16344161,-33.9385866,18.8741493,-1.8457317,0.84843725,-0.5745849,0.067668386,-0.028586566,0.0,0.008560654,-0.0500968,0.08486416,-0.028657353,0.109349184,-0.007055687,0.07540404,-0.7360245,0.28003207,-0.38865256,-2.9383314,-0.034529295,131.26224,0.1,0.28483203,0.44335628,0.13521487,0.10190869,inf,inf,inf,inf,1,1,1,1,2,0,2,1,4,1,1,1
87869183,16344161,-33.9385866,18.8741493,-1.8456268,0.8479874,-0.5749763,0.067668386,-0.028586566,0.0,0.006756501,-0.047949992,0.0836045,-0.02990081,0.109349184,-0.007055687,0.07540404,-0.0020837332,0.8807923,0.3597858,-2.9371371,-0.034529295,131.26224,0.1,0.285699,0.4439795,0.13567881,0.10207627,inf,inf,inf,inf,1,1,1,1,2,0,2,1,4,1,1,1
87879238,16344161,-33.9385866,18.8741493,-1.845499,0.8475399,-0.57530165,0.067668386,-0.028586566,0.0,0.013649814,-0.04908098,0.08617945,-0.027263764,0.109349184,-0.007055687,0.07540404,0.8820139,0.5026919,0.41178137,-2.9359229,-0.034529295,131.26224,0.1,0.28657126,0.44460464,0.13611129,0.1022438,inf,inf,inf,inf,1,1,1,1,2,0,2,1,4,1,1,1
87889185,16344161,-33.9385866,18.8741493,-1.8453454,0.84709364,-0.5758646,0.067668386,-0.028586566,0.0,0.011561727,-0.048131157,0.08509281,-0.028532067,0.109349184,-0.007055687,0.07540404,-0.23218912,0.7984097,-0.1477513,-2.9350245,-0.034529295,131.26224,0.1,0.2874487,0.4416724,0.13658197,0.10210418,inf,inf,inf,inf,1,1,1,1,2,0,2,1,4,1,1,1
87899192,16344161,-33.9385866,18.8741493,-1.8452066,0.8466734,-0.57638025,0.067668386,-0.028586566,0.0,0.013334312,-0.04566982,0.084395446,-0.029356388,0.109349184,-0.007055687,0.07540404,0.6276602,0.42219523,-0.03250572,-2.9339535,-0.034529295,131.26224,0.1,0.2883315,0.44229633,0.13701487,0.10227194,inf,inf,inf,inf,1,1,1,1,2,0,2,1,4,1,1,1
87909195,16344161,-33.9385866,18.8741493,-1.8450325,0.84625286,-0.57683504,0.067668386,-0.028586566,0.0,0.017506156,-0.0489418,0.08666574,-0.027160937,0.109349184,-0.007055687,0.07540404,0.54359365,-0.353969,0.14240192,-2.933075,-0.034529295,131.26224,0.1,0.2892195,0.4429221,0.13748185,0.10243973,inf,inf,inf,inf,1,1,1,1,2,0,2,1,4,1,1,1
87919200,16344161,-33.9385866,18.8741493,-1.8448553,0.84583616,-0.57722616,0.067668386,-0.028586566,0.0,0.014087244,-0.047469255,0.086228885,-0.02762253,0.109349184,-0.007055687,0.07540404,-0.2679,-0.4503112,-0.32882273,-2.9323828,-0.034529295,131.26224,0.1,0.29011285,0.4435498,0.13792123,0.10260746,inf,inf,inf,inf,1,1,1,1,2,0,2,1,4,1,1,1
87929202,16344161,-33.9385866,18.8741493,-1.844693,0.8454347,-0.577607,0.067668386,-0.028586566,0.0,0.01511029,-0.047571592,0.08107121,-0.03275682,0.109349184,-0.007055687,0.07540404,0.20829642,-1.0020546,-0.45546725,-2.931461,-0.034529295,131.26224,0.1,0.29101142,0.4441794,0.13838533,0.102775335,inf,inf,inf,inf,1,1,1,1,2,0,2,1,4,1,1,1
87939218,16344161,-33.9385866,18.8741493,-1.8444965,0.8450065,-0.5779428,0.067668386,-0.028586566,0.0,0.019670352,-0.04874489,0.08748768,-0.026271164,0.109349184,-0.007055687,0.07540404,0.24398331,-0.37843904,1.0377395,-2.930884,-0.034529295,131.26224,0.1,0.2919154,0.4448109,0.13884571,0.102942996,inf,inf,inf,inf,1,1,1,1,2,0,2,1,4,1,1,1
87949210,16344161,-33.9385866,18.8741493,-1.8442963,0.8445764,-0.57818395,0.067668386,-0.028586566,0.0,0.015893936,-0.04609874,0.08774309,-0.025902798,0.109349184,-0.007055687,0.07540404,-0.6649801,0.34516543,-0.34986696,-2.9301522,-0.034529295,131.26224,0.1,0.2928247,0.44544432,0.13929762,0.103111155,inf,inf,inf,inf,1,1,1,1,2,0,2,1,4,1,1,1
87959213,16344161,-33.9385866,18.8741493,-1.8441277,0.8441524,-0.57844734,0.067668386,-0.028586566,0.0,0.014385243,-0.04633519,0.07710448,-0.036386568,0.109349184,-0.007055687,0.07540404,-0.31014892,0.21109286,-0.8766164,-2.9292831,-0.034529295,131.26224,0.1,0.2937393,0.44607964,0.1397719,0.10327876,inf,inf,inf,inf,1,1,1,1,2,0,2,1,4,1,1,1
87969221,16344161,-33.9385866,18.8741493,-1.843962,0.8437,-0.57869107,0.067668386,-0.028586566,0.0,0.016002582,-0.050743483,0.083458364,-0.029837884,0.109349184,-0.007055687,0.07540404,0.08229371,-0.08640144,0.84789616,-2.9287784,-0.034529295,131.26224,0.1,0.29465932,0.44671687,0.14021619,0.10344703,inf,inf,inf,inf,1,1,1,1,2,0,2,1,4,1,1,1
87979226,16344161,-33.9385866,18.8741493,-1.8437879,0.84323776,-0.5792956,0.067668386,-0.028586566,0.0,0.016594246,-0.04889895,0.08780656,-0.025737109,0.109349184,-0.007055687,0.07540404,0.003908883,0.3378108,-0.21684213,-2.9282339,-0.034529295,131.26224,0.1,0.29558468,0.443746,0.14069167,0.10329647,inf,inf,inf,inf,1,1,1,1,2,0,2,1,4,1,1,1
87989228,16344161,-33.9385866,18.8741493,-1.8435242,0.8426715,-0.5803323,0.067668386,-0.028586566,0.0,0.015849594,-0.047760822,0.07509918,-0.03907839,0.109349184,-0.007055687,0.07540404,0.16909645,-0.030498782,-1.2398447,-2.9276698,-0.034529295,131.26224,0.1,0.27894,0.44013095,0.131853,0.1008326,inf,inf,inf,inf,1,1,1,1,2,0,2,1,4,1,1,1
87999227,16344161,-33.9385866,18.8741493,-1.8432668,0.8420928,-0.5813784,0.067668386,-0.028586566,0.0,0.016097046,-0.050879348,0.077047355,-0.03768968,0.109349184,-0.007055687,0.07540404,0.2227197,-0.25638482,1.1137841,-2.9276145,-0.034529295,131.26224,0.1,0.27976933,0.44074258,0.13230151,0.10099987,inf,inf,inf,inf,1,1,1,1,2,0,2,1,4,1,1,1
88009233,16344161,-33.9385866,18.8741493,-1.8430064,0.8414966,-0.58227485,0.067668386,-0.028586566,0.0,0.016329603,-0.051370334,0.08607994,-0.029145068,0.109349184,-0.007055687,0.07540404,0.020833222,0.075546116,0.66970545,-2.9274757,-0.034529295,131.26224,0.1,0.28060377,0.44135612,0.13277292,0.101167016,inf,inf,inf,inf,1,1,1,1,2,0,2,1,4,1,1,1
88019235,16344161,-33.9385866,18.8741493,-1.8427321,0.84090763,-0.58309597,0.067668386,-0.028586566,0.0,0.018097185,-0.05155165,0.07760169,-0.0380427,0.109349184,-0.007055687,0.07540404,-0.14807174,-0.21290857,-1.4772953,-2.9271247,-0.034529295,131.26224,0.1,0.28144345,0.44197148,0.13321258,0.10133447,inf,inf,inf,inf,1,1,1,1,2,0,2,1,4,1,1,1
88029238,16344161,-33.9385866,18.8741493,-1.8424609,0.8403078,-0.5839443,0.067668386,-0.028586566,0.0,0.01764438,-0.053327657,0.07259175,-0.04340622,0.109349184,-0.007055687,0.07540404,-0.1635841,-0.21757694,-0.31760103,-2.9269445,-0.034529295,131.26224,0.1,0.28228822,0.44258875,0.13368875,0.10150183,inf,inf,inf,inf,1,1,1,1,2,0,2,1,4,1,1,1
88039242,16344161,-33.9385866,18.8741493,-1.8422126,0.83969396,-0.584734,0.067668386,-0.028586566,0.0,0.01599095,-0.05297334,0.07804361,-0.03824493,0.109349184,-0.007055687,0.07540404,0.059059456,0.3876102,0.83310413,-2.926652,-0.034529295,131.26224,0.1,0.28313828,0.4432079,0.13415451,0.101669386,inf,inf,inf,inf,1,1,1,1,2,0,2,1,4,1,1,1
88049246,16344161,-33.9385866,18.8741493,-1.8419714,0.83908147,-0.5854411,0.067668386,-0.028586566,0.0,0.017556353,-0.054607995,0.0771297,-0.039388847,0.109349184,-0.007055687,0.07540404,0.5144384,-0.013251273,0.052382622,-2.9264226,-0.034529295,131.26224,0.1,0.2839935,0.4438289,0.13461044,0.101837106,inf,inf,inf,inf,1,1,1,1,2,0,2,1,4,1,1,1
88059250,16344161,-33.9385866,18.8741493,-1.8416994,0.838462,-0.58647054,0.067668386,-0.028586566,0.0,0.018889673,-0.05622471,0.074194044,-0.042863786,0.109349184,-0.007055687,0.07540404,-0.30624732,-0.27568424,-0.36214483,-2.9265902,-0.034529295,131.26224,0.1,0.28485397,0.44091108,0.13507809,0.10170131,inf,inf,inf,inf,1,1,1,1,2,0,2,1,4,1,1,1
88069277,16344161,-33.9385866,18.8741493,-1.8414512,0.83785516,-0.58744365,0.067668386,-0.028586566,0.0,0.014653288,-0.05303598,0.07355954,-0.0439659,0.109349184,-0.007055687,0.07540404,-0.59315765,0.044580936,-0.42024896,-2.926655,-0.034529295,131.26224,0.1,0.28571963,0.44153085,0.13554838,0.101869196,inf,inf,inf,inf,1,1,1,1,2,0,2,1,4,1,1,1
88079258,16344161,-33.9385866,18.8741493,-1.8412402,0.8372644,-0.588391,0.067668386,-0.028586566,0.0,0.01425135,-0.052119806,0.069613494,-0.048310876,0.109349184,-0.007055687,0.07540404,0.180761,0.16646175,-0.316373,-2.9263213,-0.034529295,131.26224,0.1,0.28659058,0.44215256,0.13601005,0.102037035,inf,inf,inf,inf,1,1,1,1,2,0,2,1,4,1,1,1
88089260,16344161,-33.9385866,18.8741493,-1.8410417,0.8366679,-0.5893096,0.067668386,-0.028586566,0.0,0.013247407,-0.05431138,0.07035406,-0.047903355,0.109349184,-0.007055687,0.07540404,0.2270994,-0.16736598,0.84298784,-2.926084,-0.034529295,131.26224,0.1,0.28746673,0.4427761,0.13648376,0.10220473,inf,inf,inf,inf,1,1,1,1,2,0,2,1,4,1,1,1
88099263,16344161,-33.9385866,18.8741493,-1.8408383,0.83605826,-0.590099,0.067668386,-0.028586566,0.0,0.012223158,-0.05518134,0.07840393,-0.040123448,0.109349184,-0.007055687,0.07540404,-0.49794844,-0.09723391,0.52199715,-2.9260368,-0.034529295,131.26224,0.1,0.2883482,0.4434016,0.13697705,0.10237272,inf,inf,inf,inf,1,1,1,1,2,0,2,1,4,1,1,1
88109269,16344161,-33.9385866,18.8741493,-1.8406585,0.83547264,-0.5908066,0.067668386,-0.028586566,0.0,0.010385388,-0.05011923,0.07244354,-0.046293203,0.109349184,-0.007055687,0.07540404,-0.33806506,0.4226528,-1.4377232,-2.925837,-0.034529295,131.26224,0.1,0.28923503,0.44402897,0.13742974,0.10254075,inf,inf,inf,inf,1,1,1,1,2,0,2,1,4,1,1,1
88119273,16344161,-33.9385866,18.8741493,-1.8404982,0.83492404,-0.5915732,0.067668386,-0.028586566,0.0,0.010685698,-0.047882497,0.061741278,-0.05714701,0.109349184,-0.007055687,0.07540404,0.21412228,0.18759543,-0.7230662,-2.9254298,-0.034529295,131.26224,0.1,0.29012707,0.44465822,0.1379065,0.10270875,inf,inf,inf,inf,1,1,1,1,2,0,2,1,4,1,1,1
88129274,16344161,-33.9385866,18.8741493,-1.8403445,0.8343811,-0.592341,0.067668386,-0.028586566,0.0,0.010223583,-0.04959616,0.06438778,-0.05459664,0.109349184,-0.007055687,0.07540404,0.24979693,-0.25263965,1.1644343,-2.9251757,-0.034529295,131.26224,0.1,0.29102442,0.4452894,0.13842683,0.10287678,inf,inf,inf,inf,1,1,1,1,2,0,2,1,4,1,1,1
88139277,16344161,-33.9385866,18.8741493,-1.840187,0.83382505,-0.5929673,0.067668386,-0.028586566,0.0,0.009386724,-0.04953396,0.07518458,-0.043843124,0.109349184,-0.007055687,0.07540404,-0.3148123,0.18236569,1.0541184,-2.925012,-0.034529295,131.26224,0.1,0.29192728,0.44592246,0.13888575,0.10304466,inf,inf,inf,inf,1,1,1,1,2,0,2,1,4,1,1,1
88149282,16344161,-33.9385866,18.8741493,-1.8400401,0.83328307,-0.5939057,0.067668386,-0.028586566,0.0,0.009672616,-0.04710083,0.07548621,-0.043973543,0.109349184,-0.007055687,0.07540404,0.0068989485,0.40219462,-0.7343284,-2.9245248,-0.034529295,131.26224,0.1,0.29283538,0.44296655,0.1393533,0.10289847,inf,inf,inf,inf,1,1,1,1,2,0,2,1,4,1,1,1
88159285,16344161,-33.9385866,18.8741493,-1.8398976,0.83278126,-0.5948466,0.067668386,-0.028586566,0.0,0.0097521795,-0.04354811,0.06611162,-0.05371219,0.109349184,-0.007055687,0.07540404,0.14039409,0.15459472,-0.9126643,-2.9238849,-0.034529295,131.26224,0.1,0.2937488,0.44359833,0.1398867,0.10306675,inf,inf,inf,inf,1,1,1,1,2,0,2,1,4,1,1,1
88169288,16344161,-33.9385866,18.8741493,-1.8397483,0.8323009,-0.5958112,0.067668386,-0.028586566,0.0,0.010804846,-0.042407118,0.061369583,-0.05875317,0.109349184,-0.007055687,0.07540404,0.09369114,0.041791182,0.13346823,-2.9235404,-0.034529295,131.26224,0.1,0.2946678,0.44423202,0.14036693,0.10323497,inf,inf,inf,inf,1,1,1,1,2,0,2,1,4,1,1,1
88179293,16344161,-33.9385866,18.8741493,-1.8394783,0.8318574,-0.59659106,0.067668386,-0.028586566,0.0,0.011574234,-0.04310593,0.06368584,-0.056539636,0.109349184,-0.007055687,0.07540404,0.11748612,0.18128002,0.46861103,-2.9234018,-0.034529295,131.26224,0.1,0.27824372,0.44061556,0.13161445,0.10077572,inf,inf,inf,inf,1,1,1,1,2,0,2,1,4,1,1,1
88189295,16344161,-33.9385866,18.8741493,-1.8392122,0.83141303,-0.59725827,0.067668386,-0.028586566,0.0,0.009981341,-0.04330899,0.06986946,-0.050404824,0.109349184,-0.007055687,0.07540404,-0.374099,0.09902994,0.11552118,-2.9230483,-0.034529295,131.26224,0.1,0.27906764,0.44122702,0.13212112,0.10094306,inf,inf,inf,inf,1,1,1,1,2,0,2,1,4,1,1,1
88199299,16344161,-33.9385866,18.8741493,-1.8389777,0.83099145,-0.59784883,0.067668386,-0.028586566,0.0,0.006980727,-0.04081642,0.07085533,-0.049416214,0.109349184,-0.007055687,0.07540404,-0.38868198,-0.068980135,0.002129784,-2.9226983,-0.034529295,131.26224,0.1,0.27989686,0.44184026,0.13261765,0.101110175,inf,inf,inf,inf,1,1,1,1,2,0,2,1,4,1,1,1
88209303,16344161,-33.9385866,18.8741493,-1.8387837,0.83059794,-0.59842867,0.067668386,-0.028586566,0.0,0.003718602,-0.035436556,0.064341344,-0.05587813,0.109349184,-0.007055687,0.07540404,-0.25621003,0.7009596,-0.3147515,-2.9226785,-0.034529295,131.26224,0.1,0.28073126,0.4424554,0.13307829,0.10127748,inf,inf,inf,inf,1,1,1,1,2,0,2,1,4,1,1,1
88219306,16344161,-33.9385866,18.8741493,-1.8386148,0.83022904,-0.59901345,0.067668386,-0.028586566,0.0,0.0034839124,-0.0352831,0.059375007,-0.06074525,0.109349184,-0.007055687,0.07540404,0.15246618,0.3272193,-0.36119238,-2.9226549,-0.034529295,131.26224,0.1,0.28157082,0.44307244,0.13356407,0.10144489,inf,inf,inf,inf,1,1,1,1,2,0,2,1,4,1,1,1
88229310,16344161,-33.9385866,18.8741493,-1.8384435,0.82987314,-0.599552,0.067668386,-0.028586566,0.0,0.0036892034,-0.036322773,0.06249459,-0.057481177,0.109349184,-0.007055687,0.07540404,-0.12295817,-0.47533756,0.06359409,-2.9222221,-0.034529295,131.26224,0.1,0.28241557,0.44369128,0.13405903,0.10161225,inf,inf,inf,inf,1,1,1,1,2,0,2,1,4,1,1,1
88239321,16344161,-33.9385866,18.8741493,-1.8382597,0.8295207,-0.6006684,0.067668386,-0.028586566,0.0,0.006689686,-0.033771805,0.068534054,-0.0519163,0.109349184,-0.007055687,0.07540404,0.09982428,0.03741824,0.85788906,-2.921807,-0.034529295,131.26224,0.1007404,0.28326556,0.4407746,0.1345482,0.10147796,inf,inf,inf,inf,1,1,1,1,2,0,2,1,4,1,1,1
88249316,16344161,-33.9385866,18.8741493,-1.8380698,0.8291762,-0.60167754,0.067668386,-0.028586566,0.0,0.008196533,-0.031781908,0.071051784,-0.04980319,0.109349184,-0.007055687,0.07540404,0.42198965,0.61124694,0.5070043,-2.9217293,-0.034529295,131.26224,0.10174957,0.28412083,0.44139224,0.13504992,0.10164556,inf,inf,inf,inf,1,1,1,1,2,0,2,1,4,1,1,1
88259339,16344161,-33.9385866,18.8741493,-1.8378793,0.8288478,-0.60258645,0.067668386,-0.028586566,0.0,0.0056975638,-0.032674026,0.072028905,-0.049163304,0.109349184,-0.007055687,0.07540404,-0.35888693,-0.120153666,-0.31503722,-2.9214773,-0.034529295,131.26224,0.10265848,0.2849814,0.4420118,0.13553752,0.101813145,inf,inf,inf,inf,1,1,1,1,2,0,2,1,4,1,1,1
88269363,16344161,-33.9385866,18.8741493,-1.8377033,0.82853407,-0.60343647,0.067668386,-0.028586566,0.0,0.0056893458,-0.030224558,0.072395585,-0.049069304,0.109349184,-0.007055687,0.07540404,-0.22687733,-0.04504301,-0.02115914,-2.9212222,-0.034529295,131.26224,0.1035085,0.28584725,0.44263324,0.13600007,0.10198074,inf,inf,inf,inf,1,1,1,1,2,0,2,1,4,1,1,1
88279341,16344161,-33.9385866,18.8741493,-1.8375577,0.82823724,-0.60426104,0.067668386,-0.028586566,0.0,0.0034495844,-0.027073335,0.06829564,-0.05338005,0.109349184,-0.007055687,0.07540404,0.12355471,0.5412968,-0.03508378,-2.9213858,-0.034529295,131.26224,0.10433307,0.28671828,0.4432566,0.13651577,0.10214876,inf,inf,inf,inf,1,1,1,1,2,0,2,1,4,1,1,1
88289331,16344161,-33.9385866,18.8741493,-1.8374344,0.82795405,-0.60505176,0.067668386,-0.028586566,0.0,-0.00011626514,-0.027959516,0.06401608,-0.057811383,0.109349184,-0.007055687,0.07540404,-0.43825525,0.0419323,-0.76027274,-2.9215043,-0.034529295,131.26224,0.10512379,0.28759468,0.44388178,0.13705108,0.1023167,inf,inf,inf,inf,1,1,1,1,2,0,2,1,4,1,1,1
88299334,16344161,-33.9385866,18.8741493,-1.8373327,0.8276876,-0.60582393,0.067668386,-0.028586566,0.0,-0.00055425765,-0.026483623,0.06259102,-0.059331518,0.109349184,-0.007055687,0.07540404,-0.21059664,-0.27491164,-0.07458871,-2.9216049,-0.034529295,131.26224,0.10589597,0.2884766,0.4445089,0.1375392,0.10248457,inf,inf,inf,inf,1,1,1,1,2,0,2,1,4,1,1,1
88309348,16344161,-33.9385866,18.8741493,-1.8372469,0.8274189,-0.60657716,0.067668386,-0.028586566,0.0,-5.955634e-05,-0.025422852,0.058308978,-0.06365437,0.109349184,-0.007055687,0.07540404,0.36444333,0.28938243,-0.10720361,-2.922057,-0.034529295,131.26224,0.10664919,0.2893638,0.44513792,0.13799883,0.10265254,inf,inf,inf,inf,1,1,1,1,2,0,2,1,4,1,1,1
88319342,16344161,-33.9385866,18.8741493,-1.8371654,0.82714313,-0.6077564,0.067668386,-0.028586566,0.0,-0.0024751264,-0.028462093,0.054444376,-0.06796239,0.109349184,-0.007055687,0.07540404,-0.29008055,-0.19776328,-0.6644253,-2.9223917,-0.034529295,131.26224,0.10782841,0.29025623,0.44219676,0.13849884,0.10251007,inf,inf,inf,inf,1,1,1,1,2,0,2,1,4,1,1,1
88329345,16344161,-33.9385866,18.8741493,-1.8370788,0.826863,-0.60888684,0.067668386,-0.028586566,0.0,0.000386614,-0.028210388,0.0568499,-0.065930575,0.109349184,-0.007055687,0.07540404,-0.013048502,-0.25565356,0.3592646,-2.9225123,-0.034529295,131.26224,0.10895887,0.29115403,0.4428245,0.13903673,0.10267851,inf,inf,inf,inf,1,1,1,1,2,0,2,1,4,1,1,1
88339349,16344161,-33.9385866,18.8741493,-1.8369912,0.8265665,-0.6099546,0.067668386,-0.028586566,0.0,0.002187123,-0.028763115,0.05530426,-0.06778306,0.109349184,-0.007055687,0.07540404,0.6247254,0.26934913,0.1783661,-2.9230652,-0.034529295,131.26224,0.11002663,0.29205737,0.44345415,0.13955939,0.102846794,inf,inf,inf,inf,1,1,1,1,2,0,2,1,4,1,1,1
88349353,16344161,-33.9385866,18.8741493,-1.8368908,0.8262745,-0.6109536,0.067668386,-0.028586566,0.0,0.00083397824,-0.03059118,0.054755118,-0.06857502,0.109349184,-0.007055687,0.07540404,-0.24559446,-0.48785847,-0.4400172,-2.9234574,-0.034529295,131.26224,0.11102566,0.29296622,0.44408572,0.14005789,0.103015125,inf,inf,inf,inf,1,1,1,1,2,0,2,1,4,1,1,1
88359356,16344161,-33.9385866,18.8741493,-1.8367888,0.82597554,-0.61188555,0.067668386,-0.028586566,0.0,0.0026364648,-0.029052412,0.059546754,-0.063964866,0.109349184,-0.007055687,0.07540404,-0.04533677,0.0892186,0.59196866,-2.9238315,-0.034529295,131.26224,0.11195758,0.29388046,0.4447192,0.1405436,0.10318331,inf,inf,inf,inf,1,1,1,1,2,0,2,1,4,1,1,1
88369359,16344161,-33.9385866,18.8741493,-1.8366947,0.825667,-0.61273825,0.067668386,-0.028586566,0.0,0.0011183762,-0.030695872,0.058421038,-0.065213375,0.109349184,-0.007055687,0.07540404,-0.14241616,0.13038203,-0.16611038,-2.9243517,-0.034529295,131.26224,0.112810284,0.29480007,0.44535458,0.14105059,0.103351735,inf,inf,inf,inf,1,1,1,1,2,0,2,1,4,1,1,1
88379363,16344161,-33.9385866,18.8741493,-1.8366139,0.8253715,-0.6135274,0.067668386,-0.028586566,0.0,6.4322376e-07,-0.029943958,0.061361462,-0.062339406,0.109349184,-0.007055687,0.07540404,-0.219659,-0.30835712,0.27901968,-2.924508,-0.034529295,131.26224,0.11359945,0.29572517,0.4459919,0.14158757,0.10352024,inf,inf,inf,inf,1,1,1,1,2,0,2,1,4,1,1,1
88389366,16344161,-33.9385866,18.8741493,-1.8366631,0.82503885,-0.61440474,0.067668386,-0.028586566,0.0,-0.001088464,-0.029560637,0.05992593,-0.06393503,0.109349184,-0.007055687,0.07540404,0.20892966,0.14079365,0.0926174,-2.9251695,-0.034529295,131.26224,0.11447677,0.27909818,0.4423145,0.13270463,0.10103999,inf,inf,inf,inf,1,1,1,1,2,0,2,1,4,1,1,1
88399372,16344161,-33.9385866,18.8741493,-1.8367267,0.8247222,-0.6152208,0.067668386,-0.028586566,0.0,-0.0050934777,-0.028994672,0.059829365,-0.06413385,0.109349184,-0.007055687,0.07540404,-0.51748484,-0.2405719,-0.30216125,-2.9256012,-0.034529295,131.26224,0.11529282,0.2799265,0.4429293,0.13319297,0.10120731,inf,inf,inf,inf,1,1,1,1,2,0,2,1,4,1,1,1
88409374,16344161,-33.9385866,18.8741493,-1.8368096,0.824414,-0.61653537,0.067668386,-0.028586566,0.0,-0.00527742,-0.02541248,0.05859903,-0.06595281,0.109349184,-0.007055687,0.07540404,-0.19139007,0.6013035,-0.03714812,-2.9262233,-0.034529295,131.26224,0.1166074,0.28076,0.44002664,0.13367216,0.1010769,inf,inf,inf,inf,1,1,1,1,2,0,2,1,4,1,1,1
88419377,16344161,-33.9385866,18.8741493,-1.8369085,0.8241246,-0.61780417,0.067668386,-0.028586566,0.0,-0.007748933,-0.02609064,0.05392397,-0.07113966,0.109349184,-0.007055687,0.07540404,-0.30016652,0.084500976,-0.5577724,-2.9270706,-0.034529295,131.26224,0.1178762,0.28159866,0.44064024,0.13416533,0.10124463,inf,inf,inf,inf,1,1,1,1,2,0,2,1,4,1,1,1
88429382,16344161,-33.9385866,18.8741493,-1.837007,0.8238595,-0.6190246,0.067668386,-0.028586566,0.0,-0.0063144034,-0.022400627,0.05543581,-0.07006572,0.109349184,-0.007055687,0.07540404,-0.11971064,0.20002984,0.20859376,-2.9275632,-0.034529295,131.26224,0.11909661,0.28244257,0.44125572,0.13466713,0.101412,inf,inf,inf,inf,1,1,1,1,2,0,2,1,4,1,1,1
88439384,16344161,-33.9385866,18.8741493,-1.8371122,0.8236055,-0.62020046,0.067668386,-0.028586566,0.0,-0.0065905605,-0.0221649,0.050666988,-0.07520169,0.109349184,-0.007055687,0.07540404,0.2002397,0.24355517,-0.22742692,-2.928359,-0.034529295,131.26224,0.12027249,0.28329173,0.4418731,0.1351727,0.10157979,inf,inf,inf,inf,1,1,1,1,2,0,2,1,4,1,1,1
88449397,16344161,-33.9385866,18.8741493,-1.8372041,0.823392,-0.621319,0.067668386,-0.028586566,0.0,-0.0063526304,-0.017175151,0.05276859,-0.073399745,0.109349184,-0.007055687,0.07540404,-0.27075943,0.18761855,0.21205175,-2.9290152,-0.034529295,131.26224,0.12139103,0.28414622,0.44249234,0.13569468,0.101747476,inf,inf,inf,inf,1,1,1,1,2,0,2,1,4,1,1,1
88459396,16344161,-33.9385866,18.8741493,-1.8373005,0.82320416,-0.6223795,0.067668386,-0.028586566,0.0,-0.0043781004,-0.014938265,0.050770156,-0.07563304,0.109349184,-0.007055687,0.07540404,0.52991015,0.3944017,-0.08761905,-2.9302492,-0.034529295,131.26224,0.122451514,0.28500608,0.44311345,0.1362198,0.10191506,inf,inf,inf,inf,1,1,1,1,2,0,2,1,4,1,1,1
88469395,16344161,-33.9385866,18.8741493,-1.8373848,0.8230535,-0.6233795,0.067668386,-0.028586566,0.0,-0.0060380474,-0.012562849,0.051464356,-0.07511133,0.109349184,-0.007055687,0.07540404,-0.26789606,-0.12404517,-0.1138689,-2.9314065,-0.034529295,131.26224,0.12345156,0.28587133,0.44373646,0.13673653,0.102082856,inf,inf,inf,inf,1,1,1,1,2,0,2,1,4,1,1,1
88479399,16344161,-33.9385866,18.8741493,-1.8374848,0.8229137,-0.6243287,0.067668386,-0.028586566,0.0,-0.0057694684,-0.010319606,0.051093977,-0.07559468,0.109349184,-0.007055687,0.07540404,0.28984195,0.39437795,0.1180301,-2.9328003,-0.034529295,131.26224,0.124400705,0.28674203,0.44436136,0.13726579,0.10225083,inf,inf,inf,inf,1,1,1,1,2,0,2,1,4,1,1,1
88489402,16344161,-33.9385866,18.8741493,-1.8375937,0.8228004,-0.6252118,0.067668386,-0.028586566,0.0,-0.009838911,-0.0104252845,0.051531143,-0.07521362,0.109349184,-0.007055687,0.07540404,-0.55090326,-0.42690054,-0.23524016,-2.9343522,-0.034529295,131.26224,0.12528381,0.28761816,0.44498813,0.13779467,0.10241853,inf,inf,inf,inf,1,1,1,1,2,0,2,1,4,1,1,1
88499406,16344161,-33.9385866,18.8741493,-1.8377458,0.8226826,-0.6265906,0.067668386,-0.028586566,0.0,-0.012493613,-0.008844571,0.04801696,-0.07925748,0.109349184,-0.007055687,0.07540404,-0.03878509,0.23796998,-0.17898099,-2.9361687,-0.034529295,131.26224,0.12666264,0.28849974,0.44204837,0.13830216,0.10227769,inf,inf,inf,inf,1,1,1,1,2,0,2,1,4,1,1,1
88509410,16344161,-33.9385866,18.8741493,-1.8379223,0.82258046,-0.6278999,0.067668386,-0.028586566,0.0,-0.015962942,-0.010550103,0.049952626,-0.07777611,0.109349184,-0.007055687,0.07540404,-0.35517102,-0.69170904,0.0660327,-2.937823,-0.034529295,131.26224,0.12797192,0.28938675,0.4426739,0.13882601,0.10244588,inf,inf,inf,inf,1,1,1,1,2,0,2,1,4,1,1,1
88519413,16344161,-33.9385866,18.8741493,-1.8381361,0.8224578,-0.629159,0.067668386,-0.028586566,0.0,-0.01820332,-0.010120521,0.045994233,-0.08211652,0.109349184,-0.007055687,0.07540404,0.10290347,0.10634135,-0.2624167,-2.9396005,-0.034529295,131.26224,0.129231,0.2902792,0.44330132,0.13934813,0.102613814,inf,inf,inf,inf,1,1,1,1,2,0,2,1,4,1,1,1
88529416,16344161,-33.9385866,18.8741493,-1.8383613,0.82236254,-0.6303426,0.067668386,-0.028586566,0.0,-0.01922884,-0.008355446,0.05190461,-0.07651891,0.109349184,-0.007055687,0.07540404,0.013843677,-0.39084476,0.6968638,-2.9412763,-0.034529295,131.26224,0.13041463,0.29117715,0.44393063,0.13985185,0.10278221,inf,inf,inf,inf,1,1,1,1,2,0,2,1,4,1,1,1
88539421,16344161,-33.9385866,18.8741493,-1.8386045,0.82226014,-0.6314607,0.067668386,-0.028586566,0.0,-0.02218235,-0.008294332,0.044771098,-0.08389864,0.109349184,-0.007055687,0.07540404,-0.26081967,0.13482413,-0.95613915,-2.943133,-0.034529295,131.26224,0.13153276,0.29208055,0.44456187,0.1403794,0.10295025,inf,inf,inf,inf,1,1,1,1,2,0,2,1,4,1,1,1
88549424,16344161,-33.9385866,18.8741493,-1.8388505,0.8221863,-0.63256615,0.067668386,-0.028586566,0.0,-0.019674528,-0.003748006,0.04656084,-0.08229157,0.109349184,-0.007055687,0.07540404,0.2952296,0.37338415,0.7706016,-2.9449053,-0.034529295,131.26224,0.13263819,0.29298946,0.44519502,0.14089344,0.10311858,inf,inf,inf,inf,1,1,1,1,2,0,2,1,4,1,1,1
88559427,16344161,-33.9385866,18.8741493,-1.8390805,0.82212985,-0.6335872,0.067668386,-0.028586566,0.0,-0.02082928,-0.004338652,0.044494916,-0.08447909,0.109349184,-0.007055687,0.07540404,-0.44133377,-0.012968161,-0.6892325,-2.94675,-0.034529295,131.26224,0.13365921,0.29390386,0.44583008,0.14142512,0.10328684,inf,inf,inf,inf,1,1,1,1,2,0,2,1,4,1,1,1
88569431,16344161,-33.9385866,18.8741493,-1.8393359,0.82207924,-0.63460565,0.067668386,-0.028586566,0.0,-0.021713983,-0.002650309,0.041016404,-0.08802097,0.109349184,-0.007055687,0.07540404,0.18301962,0.21270026,0.19738802,-2.9486682,-0.034529295,131.26224,0.13467768,0.29482383,0.44646707,0.14195377,0.103455134,inf,inf,inf,inf,1,1,1,1,2,0,2,1,4,1,1,1
88579434,16344161,-33.9385866,18.8741493,-1.8395883,0.8220381,-0.63596153,0.067668386,-0.028586566,0.0,-0.022605086,-0.0038203401,0.048378743,-0.081099875,0.109349184,-0.007055687,0.07540404,-0.31816855,-0.32631874,0.5790493,-2.9502735,-0.034529295,131.26224,0.13603356,0.29574943,0.44350192,0.14248745,0.10330589,inf,inf,inf,inf,1,1,1,1,2,0,2,1,4,1,1,1
88589438,16344161,-33.9385866,18.8741493,-1.8400639,0.8221125,-0.6374889,0.067668386,-0.028586566,0.0,-0.028746005,-0.004798765,0.0412924,-0.08880449,0.109349184,-0.007055687,0.07540404,-0.5022193,-0.0062325443,-0.89471257,-2.9519727,-0.034529295,131.26224,0.13756093,0.27912048,0.43989223,0.13349898,0.100841604,inf,inf,inf,inf,1,1,1,1,2,0,2,1,4,1,1,1
88599442,16344161,-33.9385866,18.8741493,-1.8405657,0.8221911,-0.63898844,0.067668386,-0.028586566,0.0,-0.02896926,-0.003174991,0.042810377,-0.087824486,0.109349184,-0.007055687,0.07540404,0.060902126,0.09900721,0.65757954,-2.953667,-0.034529295,131.26224,0.13906047,0.2799482,0.44050363,0.13400844,0.101009265,inf,inf,inf,inf,1,1,1,1,2,0,2,1,4,1,1,1
88609446,16344161,-33.9385866,18.8741493,-1.8410454,0.8222684,-0.6403748,0.067668386,-0.028586566,0.0,-0.026457297,-0.0036206562,0.044712696,-0.086382955,0.109349184,-0.007055687,0.07540404,0.12577479,0.08305295,-0.3103202,-2.955326,-0.034529295,131.26224,0.14044681,0.28078127,0.4411169,0.1345419,0.10117665,inf,inf,inf,inf,1,1,1,1,2,0,2,1,4,1,1,1
88619449,16344161,-33.9385866,18.8741493,-1.8415036,0.8223642,-0.64174455,0.067668386,-0.028586566,0.0,-0.023645628,0.0007289996,0.0366691,-0.09481347,0.109349184,-0.007055687,0.07540404,0.5450714,0.48717177,-0.47759628,-2.9570513,-0.034529295,131.26224,0.14181659,0.28161973,0.44173208,0.13505289,0.10134442,inf,inf,inf,inf,1,1,1,1,2,0,2,1,4,1,1,1
88629493,16344161,-33.9385866,18.8741493,-1.841905,0.8224989,-0.6430422,0.067668386,-0.028586566,0.0,-0.0170701,0.0034173834,0.045081686,-0.086716644,0.109349184,-0.007055687,0.07540404,0.69662076,0.0888619,1.0697362,-2.9587445,-0.034529295,131.26224,0.14311424,0.28246352,0.4423491,0.13557953,0.101512104,inf,inf,inf,inf,1,1,1,1,2,0,2,1,4,1,1,1
88639456,16344161,-33.9385866,18.8741493,-1.8422737,0.82263124,-0.6442486,0.067668386,-0.028586566,0.0,-0.019329045,0.0021188527,0.037854265,-0.09419209,0.109349184,-0.007055687,0.07540404,-0.38872048,-0.055717167,-1.5158781,-2.960267,-0.034529295,131.26224,0.14432064,0.28331274,0.442968,0.13609849,0.10167978,inf,inf,inf,inf,1,1,1,1,2,0,2,1,4,1,1,1
88649459,16344161,-33.9385866,18.8741493,-1.8426883,0.8227549,-0.6455344,0.067668386,-0.028586566,0.0,-0.026557073,0.0018374247,0.023711005,-0.10851775,0.109349184,-0.007055687,0.07540404,-0.79255533,-0.0026209732,-0.75186783,-2.9617043,-0.034529295,131.26224,0.14560643,0.28416735,0.4435888,0.13662286,0.101847485,inf,inf,inf,inf,1,1,1,1,2,0,2,1,4,1,1,1
88659462,16344161,-33.9385866,18.8741493,-1.8431631,0.82287455,-0.64678925,0.067668386,-0.028586566,0.0,-0.030073415,0.0018439107,0.029947165,-0.10240189,0.109349184,-0.007055687,0.07540404,-0.0015528646,0.026549172,0.8171989,-2.9629853,-0.034529295,131.26224,0.14686128,0.28502735,0.44421145,0.13714625,0.10201505,inf,inf,inf,inf,1,1,1,1,2,0,2,1,4,1,1,1
88669466,16344161,-33.9385866,18.8741493,-1.8436401,0.8230093,-0.648453,0.067668386,-0.028586566,0.0,-0.029072857,0.005692415,0.024675472,-0.10822375,0.109349184,-0.007055687,0.07540404,0.21316555,0.481277,-0.8587916,-2.9641929,-0.034529295,131.26224,0.14852503,0.2858928,0.44128615,0.13768506,0.101877816,inf,inf,inf,inf,1,1,1,1,2,0,2,1,4,1,1,1
88679470,16344161,-33.9385866,18.8741493,-1.8440919,0.8231966,-0.6501189,0.067668386,-0.028586566,0.0,-0.02539476,0.011266562,0.018606132,-0.11476486,0.109349184,-0.007055687,0.07540404,0.56532025,0.33453864,-0.25268543,-2.9653618,-0.034529295,131.26224,0.15019092,0.28676382,0.44190755,0.13820598,0.102045424,inf,inf,inf,inf,1,1,1,1,2,0,2,1,4,1,1,1
88689474,16344161,-33.9385866,18.8741493,-1.8444672,0.8233957,-0.6516741,0.067668386,-0.028586566,0.0,-0.01596179,0.008558402,0.03333555,-0.100431986,0.109349184,-0.007055687,0.07540404,0.86368203,-0.4744169,1.913413,-2.9662585,-0.034529295,131.26224,0.15174612,0.28764027,0.4425309,0.13874954,0.10221333,inf,inf,inf,inf,1,1,1,1,2,0,2,1,4,1,1,1
88699477,16344161,-33.9385866,18.8741493,-1.8447753,0.8235752,-0.65303254,0.067668386,-0.028586566,0.0,-0.012258872,0.010024283,0.03835953,-0.09573231,0.109349184,-0.007055687,0.07540404,0.37861952,0.38018787,-0.28009933,-2.9673033,-0.034529295,131.26224,0.15310457,0.2885223,0.44315612,0.13925889,0.1023813,inf,inf,inf,inf,1,1,1,1,2,0,2,1,4,1,1,1
88709482,16344161,-33.9385866,18.8741493,-1.8450559,0.82380146,-0.654397,0.067668386,-0.028586566,0.0,-0.011113491,0.01635169,0.02365566,-0.11069139,0.109349184,-0.007055687,0.07540404,0.13384415,0.4812219,-1.3680744,-2.9685524,-0.034529295,131.26224,0.15446904,0.28940976,0.44378325,0.13981725,0.102549255,inf,inf,inf,inf,1,1,1,1,2,0,2,1,4,1,1,1
88719488,16344161,-33.9385866,18.8741493,-1.8453362,0.82404983,-0.65576565,0.067668386,-0.028586566,0.0,-0.014373136,0.014994636,0.026351502,-0.108184494,0.109349184,-0.007055687,0.07540404,-0.6094638,-0.25249326,0.6635458,-2.9697921,-0.034529295,131.26224,0.15583768,0.2903029,0.44441226,0.1403442,0.102717616,inf,inf,inf,inf,1,1,1,1,2,0,2,1,4,1,1,1
88729488,16344161,-33.9385866,18.8741493,-1.8456794,0.8242791,-0.65704846,0.067668386,-0.028586566,0.0,-0.022466034,0.014426301,0.023903724,-0.11075789,0.109349184,-0.007055687,0.07540404,-0.73408663,0.1301798,-0.8436148,-2.971054,-0.034529295,131.26224,0.1571205,0.29120162,0.4450432,0.14088704,0.10288573,inf,inf,inf,inf,1,1,1,1,2,0,2,1,4,1,1,1
88739492,16344161,-33.9385866,18.8741493,-1.8460703,0.82453924,-0.6583352,0.067668386,-0.028586566,0.0,-0.02369474,0.021808224,0.018299565,-0.11642626,0.109349184,-0.007055687,0.07540404,0.11634818,0.9962432,-0.22932857,-2.9724407,-0.034529295,131.26224,0.15840724,0.29210597,0.44567603,0.14143655,0.103053905,inf,inf,inf,inf,1,1,1,1,2,0,2,1,4,1,1,1
88749537,16344161,-33.9385866,18.8741493,-1.8463857,0.8248725,-0.65954477,0.067668386,-0.028586566,0.0,-0.009583353,0.026341263,0.027226018,-0.10750607,0.109349184,-0.007055687,0.07540404,1.2886404,0.1376024,1.0764438,-2.9736855,-0.034529295,131.26224,0.1596168,0.293016,0.4463108,0.1419477,0.10322211,inf,inf,inf,inf,1,1,1,1,2,0,2,1,4,1,1,1
88759519,16344161,-33.9385866,18.8741493,-1.8466086,0.8251711,-0.66120434,0.067668386,-0.028586566,0.0,-0.008244589,0.016684528,0.033538457,-0.101739675,0.109349184,-0.007055687,0.07540404,-0.43957487,-1.0588565,0.41387454,-2.9747355,-0.034529295,131.26224,0.16127637,0.29393154,0.44334722,0.14251341,0.10307399,inf,inf,inf,inf,1,1,1,1,2,0,2,1,4,1,1,1
88769503,16344161,-33.9385866,18.8741493,-1.8468721,0.8254009,-0.66277045,0.067668386,-0.028586566,0.0,-0.015810953,0.015779821,0.031474616,-0.10427023,0.109349184,-0.007055687,0.07540404,-0.8397078,0.4002053,-0.37251416,-2.9759133,-0.034529295,131.26224,0.16284248,0.29485288,0.4439806,0.14304847,0.103242435,inf,inf,inf,inf,1,1,1,1,2,0,2,1,4,1,1,1
88779506,16344161,-33.9385866,18.8741493,-1.8471872,0.8256967,-0.6643,0.067668386,-0.028586566,0.0,-0.018152943,0.027360473,0.02736545,-0.10877012,0.109349184,-0.007055687,0.07540404,-0.1427696,1.0917276,-0.45017,-2.9768765,-0.034529295,131.26224,0.16437206,0.29577988,0.44461596,0.14358328,0.10341104,inf,inf,inf,inf,1,1,1,1,2,0,2,1,4,1,1,1
88789509,16344161,-33.9385866,18.8741493,-1.8476839,0.82596076,-0.66585064,0.067668386,-0.028586566,0.0,-0.01601998,0.02518696,0.024095833,-0.112407885,0.109349184,-0.007055687,0.07540404,0.023004266,-0.43236575,-0.21152924,-2.9780328,-0.034529295,131.26224,0.16592267,0.27913713,0.44097596,0.13446441,0.100939415,inf,inf,inf,inf,1,1,1,1,2,0,2,1,4,1,1,1
88799513,16344161,-33.9385866,18.8741493,-1.8481468,0.82621676,-0.6673183,0.067668386,-0.028586566,0.0,-0.0118545545,0.028263777,0.031036995,-0.10576268,0.109349184,-0.007055687,0.07540404,0.46841693,0.6446702,0.92578435,-2.979454,-0.034529295,131.26224,0.16739032,0.2799651,0.4415889,0.1349624,0.101107195,inf,inf,inf,inf,1,1,1,1,2,0,2,1,4,1,1,1
88809516,16344161,-33.9385866,18.8741493,-1.8485879,0.8264996,-0.6686472,0.067668386,-0.028586566,0.0,-0.017279638,0.027312053,0.035915293,-0.10111147,0.109349184,-0.007055687,0.07540404,-1.2904271,-0.35114467,0.11448125,-2.9807365,-0.034529295,131.26224,0.16871926,0.28079838,0.44220367,0.1355143,0.1012744,inf,inf,inf,inf,1,1,1,1,2,0,2,1,4,1,1,1
88819542,16344161,-33.9385866,18.8741493,-1.8491514,0.8267497,-0.66992575,0.067668386,-0.028586566,0.0,-0.02978019,0.026939573,0.0305473,-0.10664055,0.109349184,-0.007055687,0.07540404,-0.38523364,0.8291401,-0.45766115,-2.9821837,-0.034529295,131.26224,0.16999778,0.28163716,0.44282034,0.13609388,0.10144159,inf,inf,inf,inf,1,1,1,1,2,0,2,1,4,1,1,1
88829523,16344161,-33.9385866,18.8741493,-1.8496623,0.82711715,-0.67113155,0.067668386,-0.028586566,0.0,-0.012245812,0.045049373,0.03830998,-0.09897542,0.109349184,-0.007055687,0.07540404,1.8897033,1.5174282,0.80922186,-2.983551,-0.034529295,131.26224,0.17120358,0.28248164,0.4434389,0.13660331,0.1016089,inf,inf,inf,inf,1,1,1,1,2,0,2,1,4,1,1,1
88839527,16344161,-33.9385866,18.8741493,-1.8500786,0.8275099,-0.67296535,0.067668386,-0.028586566,0.0,-0.018600691,0.029864373,0.03455641,-0.10349618,0.109349184,-0.007055687,0.07540404,-1.7704027,-2.1751282,-0.96494794,-2.9848628,-0.034529295,131.26224,0.17303738,0.2833315,0.44052786,0.13715392,0.101475604,inf,inf,inf,inf,1,1,1,1,2,0,2,1,4,1,1,1
88849531,16344161,-33.9385866,18.8741493,-1.850604,0.8277967,-0.6747841,0.067668386,-0.028586566,0.0,-0.02680615,0.03250726,0.030319946,-0.10840977,0.109349184,-0.007055687,0.07540404,-0.2023237,1.360704,0.06682045,-2.9860678,-0.034529295,131.26224,0.17485616,0.28418696,0.4411452,0.13770868,0.10164376,inf,inf,inf,inf,1,1,1,1,2,0,2,1,4,1,1,1
88859534,16344161,-33.9385866,18.8741493,-1.851117,0.8281815,-0.6765254,0.067668386,-0.028586566,0.0,-0.022140723,0.04006667,0.031600542,-0.10771964,0.109349184,-0.007055687,0.07540404,0.14579812,-0.0020384644,0.10684827,-2.986977,-0.034529295,131.26224,0.17659745,0.28504804,0.44176444,0.13819084,0.101811744,inf,inf,inf,inf,1,1,1,1,2,0,2,1,4,1,1,1
88869538,16344161,-33.9385866,18.8741493,-1.8516092,0.8285464,-0.6781705,0.067668386,-0.028586566,0.0,-0.021252014,0.033395767,0.035350956,-0.10447686,0.109349184,-0.007055687,0.07540404,0.32305256,-0.4112931,0.5269287,-2.9879537,-0.034529295,131.26224,0.17824253,0.28591445,0.44238555,0.13870919,0.10197982,inf,inf,inf,inf,1,1,1,1,2,0,2,1,4,1,1,1
88879541,16344161,-33.9385866,18.8741493,-1.8521227,0.8288804,-0.6797431,0.067668386,-0.028586566,0.0,-0.032677833,0.031595476,0.028270788,-0.11198467,0.109349184,-0.007055687,0.07540404,-1.9045414,-0.3631085,-1.1577269,-2.9889317,-0.034529295,131.26224,0.17981514,0.28678638,0.44300854,0.13929924,0.10214796,inf,inf,inf,inf,1,1,1,1,2,0,2,1,4,1,1,1
88889545,16344161,-33.9385866,18.8741493,-1.852747,0.8292119,-0.68131274,0.067668386,-0.028586566,0.0,-0.033751108,0.036724355,0.029413959,-0.11119303,0.109349184,-0.007055687,0.07540404,1.3040482,1.1124575,1.2113993,-2.9900355,-0.034529295,131.26224,0.18138477,0.28766412,0.44363347,0.13982922,0.102315694,inf,inf,inf,inf,1,1,1,1,2,0,2,1,4,1,1,1
88899549,16344161,-33.9385866,18.8741493,-1.8532629,0.8296235,-0.6827484,0.067668386,-0.028586566,0.0,-0.025063459,0.037845895,0.03238377,-0.10850138,0.109349184,-0.007055687,0.07540404,-0.2805426,-1.211629,-0.41107103,-2.9907718,-0.034529295,131.26224,0.18282041,0.28854746,0.44426027,0.14037913,0.102483205,inf,inf,inf,inf,1,1,1,1,2,0,2,1,4,1,1,1
88909552,16344161,-33.9385866,18.8741493,-1.8538643,0.8299155,-0.68420154,0.067668386,-0.028586566,0.0,-0.041799534,0.024997544,0.018735142,-0.122358374,0.109349184,-0.007055687,0.07540404,-0.7669668,-0.15069023,-0.85378426,-2.9914608,-0.034529295,131.26224,0.18427357,0.28943646,0.44488895,0.14094156,0.102651514,inf,inf,inf,inf,1,1,1,1,2,0,2,1,4,1,1,1
88919556,16344161,-33.9385866,18.8741493,-1.8544555,0.83027095,-0.68563855,0.067668386,-0.028586566,0.0,-0.028481774,0.04161062,0.01956754,-0.12166667,0.109349184,-0.007055687,0.07540404,1.3609904,1.0194943,-0.033777397,-2.9916842,-0.034529295,131.26224,0.18571058,0.29033127,0.44551954,0.14145355,0.10282031,inf,inf,inf,inf,1,1,1,1,2,0,2,1,4,1,1,1
88929559,16344161,-33.9385866,18.8741493,-1.854983,0.83063775,-0.6879049,0.067668386,-0.028586566,0.0,-0.030434944,0.029956471,0.01491631,-0.12726709,0.109349184,-0.007055687,0.07540404,-0.23442508,-1.2859939,-0.24285907,-2.9920151,-0.034529295,131.26224,0.18797693,0.2912316,0.44257084,0.14197408,0.102675855,inf,inf,inf,inf,1,1,1,1,2,0,2,1,4,1,1,1
88939563,16344161,-33.9385866,18.8741493,-1.8555595,0.83095294,-0.69010705,0.067668386,-0.028586566,0.0,-0.039888024,0.03206445,0.012598435,-0.13043454,0.109349184,-0.007055687,0.07540404,-1.0966811,0.27217084,-0.39351287,-2.9922895,-0.034529295,131.26224,0.19017908,0.2921376,0.44320017,0.14252709,0.10284372,inf,inf,inf,inf,1,1,1,1,2,0,2,1,4,1,1,1
88949566,16344161,-33.9385866,18.8741493,-1.8561183,0.83132774,-0.692236,0.067668386,-0.028586566,0.0,-0.023131866,0.04353184,0.014324786,-0.12946142,0.109349184,-0.007055687,0.07540404,2.4868245,1.5437052,0.4464313,-2.9928343,-0.034529295,131.26224,0.19230804,0.29304934,0.44383138,0.1430896,0.10301233,inf,inf,inf,inf,1,1,1,1,2,0,2,1,4,1,1,1
88959583,16344161,-33.9385866,18.8741493,-1.8566025,0.83174026,-0.69433725,0.067668386,-0.028586566,0.0,-0.035467196,0.03326124,-0.0007445505,-0.14519222,0.109349184,-0.007055687,0.07540404,-2.3433168,-1.8810995,-1.6633023,-2.9937515,-0.034529295,131.26224,0.19440928,0.29396692,0.4444645,0.14364947,0.10318063,inf,inf,inf,inf,1,1,1,1,2,0,2,1,4,1,1,1
88969573,16344161,-33.9385866,18.8741493,-1.8571197,0.8321466,-0.6963729,0.067668386,-0.028586566,0.0,-0.019309625,0.051271785,0.013890357,-0.13113025,0.109349184,-0.007055687,0.07540404,2.8064213,2.7136512,1.8357426,-2.9944537,-0.034529295,131.26224,0.19644496,0.2948903,0.44509956,0.14417398,0.103349194,inf,inf,inf,inf,1,1,1,1,2,0,2,1,4,1,1,1
88979577,16344161,-33.9385866,18.8741493,-1.8575373,0.8326278,-0.6983236,0.067668386,-0.028586566,0.0,-0.028187802,0.039000593,-0.0043825763,-0.14989173,0.109349184,-0.007055687,0.07540404,-2.0802853,-2.1518598,-2.4847724,-2.9954417,-0.034529295,131.26224,0.19839564,0.29581943,0.44573656,0.14470768,0.10351728,inf,inf,inf,inf,1,1,1,1,2,0,2,1,4,1,1,1
88989581,16344161,-33.9385866,18.8741493,-1.8577796,0.8332705,-0.7001587,0.067668386,-0.028586566,0.0,-0.018450115,0.0554835,-0.0007901454,-0.14655948,0.109349184,-0.007055687,0.07540404,1.8957077,2.4391863,0.82798,-2.996578,-0.034529295,131.26224,0.20023075,0.2791552,0.44206595,0.13542911,0.10103689,inf,inf,inf,inf,1,1,1,1,2,0,2,1,4,1,1,1
88999584,16344161,-33.9385866,18.8741493,-1.8579375,0.8339963,-0.7019389,0.067668386,-0.028586566,0.0,-0.017556567,0.048324693,-0.007796966,-0.15375564,0.109349184,-0.007055687,0.07540404,-0.28148863,-1.5852855,-0.391502,-2.9980168,-0.034529295,131.26224,0.20201096,0.27998385,0.44268042,0.13593566,0.10120559,inf,inf,inf,inf,1,1,1,1,2,0,2,1,4,1,1,1
89009588,16344161,-33.9385866,18.8741493,-1.8581331,0.83467376,-0.70451766,0.067668386,-0.028586566,0.0,-0.022849275,0.052817546,-0.01061761,-0.15753473,0.109349184,-0.007055687,0.07540404,-0.36660957,0.75597155,-0.5470489,-2.9995615,-0.034529295,131.26224,0.2045897,0.28081793,0.4397833,0.13648312,0.101074405,inf,inf,inf,inf,1,1,1,1,2,0,2,1,4,1,1,1
89019592,16344161,-33.9385866,18.8741493,-1.8582659,0.8354499,-0.70701367,0.067668386,-0.028586566,0.0,-0.007921427,0.06533173,-0.009866767,-0.15764025,0.109349184,-0.007055687,0.07540404,1.0542657,0.8801894,-0.21148689,-3.0011683,-0.034529295,131.26224,0.2070857,0.2816576,0.4403966,0.137035,0.10124149,inf,inf,inf,inf,1,1,1,1,2,0,2,1,4,1,1,1
89029595,16344161,-33.9385866,18.8741493,-1.8584163,0.83621323,-0.70951414,0.067668386,-0.028586566,0.0,-0.021854049,0.05489815,-0.022783423,-0.17131536,0.109349184,-0.007055687,0.07540404,-0.98224664,-0.6960381,-0.27948117,-3.0032866,-0.034529295,131.26224,0.20958617,0.2825029,0.4410118,0.13756843,0.10140937,inf,inf,inf,inf,1,1,1,1,2,0,2,1,4,1,1,1
89039600,16344161,-33.9385866,18.8741493,-1.858523,0.8370469,-0.7118572,0.067668386,-0.028586566,0.0,-0.0032759644,0.0753384,-0.0049208417,-0.15411663,0.109349184,-0.007055687,0.07540404,1.4107102,1.4226142,0.9561961,-3.0050106,-0.034529295,131.26224,0.21192923,0.28335378,0.44162884,0.13809411,0.10157639,inf,inf,inf,inf,1,1,1,1,2,0,2,1,4,1,1,1
89049603,16344161,-33.9385866,18.8741493,-1.8586428,0.83787006,-0.71415126,0.067668386,-0.028586566,0.0,-0.018092047,0.060180984,-0.021256285,-0.17102583,0.109349184,-0.007055687,0.07540404,-0.7149602,-0.838228,-0.82394683,-3.007183,-0.034529295,131.26224,0.2142233,0.2842102,0.44224778,0.13865992,0.101743236,inf,inf,inf,inf,1,1,1,1,2,0,2,1,4,1,1,1
89059606,16344161,-33.9385866,18.8741493,-1.8587295,0.8387344,-0.7163704,0.067668386,-0.028586566,0.0,-0.0021149113,0.07812466,-0.01398828,-0.16424447,0.109349184,-0.007055687,0.07540404,1.2899674,1.2462543,-0.002180143,-3.0092967,-0.034529295,131.26224,0.21644244,0.28507236,0.4428686,0.13919805,0.101910725,inf,inf,inf,inf,1,1,1,1,2,0,2,1,4,1,1,1
89069610,16344161,-33.9385866,18.8741493,-1.8587162,0.8396469,-0.718509,0.067668386,-0.028586566,0.0,0.003785692,0.073558755,-0.013173579,-0.16383368,0.109349184,-0.007055687,0.07540404,0.5870564,-0.4693354,0.805014,-3.0115473,-0.034529295,131.26224,0.21858105,0.28594017,0.44349128,0.13972992,0.10207859,inf,inf,inf,inf,1,1,1,1,2,0,2,1,4,1,1,1
89079613,16344161,-33.9385866,18.8741493,-1.8587104,0.84053516,-0.7205469,0.067668386,-0.028586566,0.0,0.00039334217,0.07465639,-0.010610076,-0.16159438,0.109349184,-0.007055687,0.07540404,0.46114707,0.2606326,0.6420039,-3.0135977,-0.034529295,131.26224,0.22061893,0.28681365,0.44411585,0.14032264,0.10224473,inf,inf,inf,inf,1,1,1,1,2,0,2,1,4,1,1,1
89089616,16344161,-33.9385866,18.8741493,-1.8585932,0.84151196,-0.72243786,0.067668386,-0.028586566,0.0,0.017544797,0.08801681,-0.0047202273,-0.15595284,0.109349184,-0.007055687,0.07540404,0.7855945,0.6584718,-0.33655807,-3.0153084,-0.034529295,131.26224,0.22250989,0.28769302,0.44474235,0.14086469,0.10241349,inf,inf,inf,inf,1,1,1,1,2,0,2,1,4,1,1,1
89099655,16344161,-33.9385866,18.8741493,-1.858523,0.842462,-0.7253069,0.067668386,-0.028586566,0.0,-0.0012352893,0.076491214,-0.023725403,-0.17607737,0.109349184,-0.007055687,0.07540404,-1.2683183,-0.4467904,-0.9231209,-3.0175676,-0.034529295,131.26224,0.22537896,0.28857812,0.4418081,0.14142679,0.102272086,inf,inf,inf,inf,1,1,1,1,2,0,2,1,4,1,1,1
89109623,16344161,-33.9385866,18.8741493,-1.8584665,0.8434834,-0.72810596,0.067668386,-0.028586566,0.0,0.00987983,0.09640836,-0.018772876,-0.17213291,0.109349184,-0.007055687,0.07540404,0.68975806,1.1430771,-0.11411571,-3.0196064,-0.034529295,131.26224,0.228178,0.28946903,0.44243336,0.14198366,0.10243943,inf,inf,inf,inf,1,1,1,1,2,0,2,1,4,1,1,1
89119627,16344161,-33.9385866,18.8741493,-1.8584344,0.8445248,-0.730835,0.067668386,-0.028586566,0.0,-0.0021294525,0.085986696,-0.021718917,-0.17598024,0.109349184,-0.007055687,0.07540404,-0.805682,-0.79376864,0.52578104,-3.0221362,-0.034529295,131.26224,0.23090705,0.2903658,0.4430605,0.14252536,0.1026083,inf,inf,inf,inf,1,1,1,1,2,0,2,1,4,1,1,1
89129631,16344161,-33.9385866,18.8741493,-1.858465,0.845554,-0.7334398,0.067668386,-0.028586566,0.0,-0.0018717978,0.09225089,-0.017921278,-0.17298055,0.109349184,-0.007055687,0.07540404,0.49934,0.36415735,0.1302978,-3.024487,-0.034529295,131.26224,0.23351184,0.29126832,0.4436895,0.14312954,0.10277495,inf,inf,inf,inf,1,1,1,1,2,0,2,1,4,1,1,1
89139635,16344161,-33.9385866,18.8741493,-1.8583854,0.8466447,-0.73590314,0.067668386,-0.028586566,0.0,0.014356766,0.09722099,-0.012553283,-0.16831231,0.109349184,-0.007055687,0.07540404,1.0292811,-0.07607582,0.06442434,-3.026766,-0.034529295,131.26224,0.23597518,0.29217693,0.44432044,0.1436284,0.10294414,inf,inf,inf,inf,1,1,1,1,2,0,2,1,4,1,1,1
89149638,16344161,-33.9385866,18.8741493,-1.8582926,0.8476968,-0.73831713,0.067668386,-0.028586566,0.0,0.0075440235,0.092340805,-0.018456902,-0.17482059,0.109349184,-0.007055687,0.07540404,-0.0018673324,0.33301744,0.31575423,-3.029217,-0.034529295,131.26224,0.23838916,0.29309115,0.44495326,0.14424549,0.10311089,inf,inf,inf,inf,1,1,1,1,2,0,2,1,4,1,1,1
89159641,16344161,-33.9385866,18.8741493,-1.858107,0.8488527,-0.74058104,0.067668386,-0.028586566,0.0,0.02481886,0.10926033,-0.008673638,-0.16555165,0.109349184,-0.007055687,0.07540404,0.8240371,0.6751167,0.015275545,-3.031317,-0.034529295,131.26224,0.24065307,0.29401153,0.44558802,0.14478701,0.10327981,inf,inf,inf,inf,1,1,1,1,2,0,2,1,4,1,1,1
